# Time Altitude Vx Vy Vz Ax Ay Az g_x g_y g_z rho Umean_x Umean_y Umean_z Urel_x Urel_y Urel_z Fpress_x Fpress_y Fpress_z Fvisc_x Fvisc_y Fvisc_z Faero_x Faero_y Faero_z Fgrav_x Fgrav_y Fgrav_z Fnet_x Fnet_y Fnet_z
0.000119999 -1.4126174e-07 0 -0.0011771906 0 0 -9.81 0 0 -9.81 0 1.204 0 00.000263997 -5.1417165e-07 0 -0.0025896977 0 0 -9.8092499 0 0 -9.81 0.000263997 -5.1417165e-07 0 -0.0025896977 0 0 -9.8092499 0 0 -9.81 0 1.204 0 0 0 0 0.0025896977 0 27.891737 73.519845 8.8145081e-18 3.0925219e-10 1.4131901e-05 8.304570.000436794 -1.254561e-06 0 -0.0042847112 0 0 -9.8092217 0 0 -9.81 0 1.204 29.21075 76.28540.000436794 -1.254561e-06 0 -0.0042847112 0 0 -9.8092217 0 0 -9.81 0 1.204 0 0 0 0 0.0042847112 0 29.21075 76.285435 9.6432736e-18 -2.5578027e0.000644151 -2.5647846e-06 0 -0.0063187122 0 0 -9.8092168 0 0 -9.81 0 1.204 29.705278 76.763387 9.81846e-18 -7.3710.000644151 -2.5647846e-06 0 -0.0063187122 0 0 -9.8092168 0 0 -9.81 0 1.204 0 0 0 0 0.0063187122 0 29.705278 76.763387 90.000892974 -4.7443446e-06 0 -0.0087594726 0 0 -9.8092151 0 0 -9.81 0 1.204 29.887741 76.935794 9.8751047e-18 -1.2883948e-09 6.7813086e-00.000892974 -4.7443446e-06 0 -0.0087594726 0 0 -9.8092151 0 0 -9.81 0 1.204 0 0 0 0 0.0087594726 0 20.00119155 -8.2342239e-06 0 -0.011688297 0 0 -9.8092142 0 0 -9.81 0 1.204 29.957917 77.02011 9.9022775e-18 -1.4452533e-09 9.3071453e-05 -4.9360674e-24 29.9579170.00119155 -8.2342239e-06 0 -0.011688297 0 0 -9.8092142 0 0 -9.81 0 1.204 00.00154984 -1.3681178e-05 0 -0.015202803 0 0 -9.8092138 0 0 -9.81 0 1.204 29.990477 77.062448 9.9131246e-18 -1.7211047e-09 0.00012308278 -6.8303871e-24 29.990477 77.062571 9.9131178e0.00154984 -1.3681178e-05 0 -0.015202803 0 0 -9.8092130.00197978 -2.2030622e-05 0 -0.019420149 0 0 -9.8092135 0 0 -9.81 0 1.204 30.005414 77.088933 9.9182197e-18 -1.4261496e-09 0.00015884975 -8.9513836e-24 30.005414 77.089091 9.9182107e-18 0 -961556.58 0 30.0.00197978 -2.2030622e-05 0 -0.00.00249567 -3.4660169e-05 0 -0.024480703 0 0 -9.8092134 0 0 -9.81 0 1.204 30.013156 77.102522 9.9205006e-18 1.68445e-10 0.00020165309 -1.1416089e-23 30.013156 77.102724 9.9204892e-18 0 -961556.58 0 30.013156 -961479.48 9.920480.002490.00311471 -5.3573672e-05 0 -0.030552991 0 0 -9.8092133 0 0 -9.81 0 1.204 30.013455 77.113987 9.9223778e-18 6.9815282e-09 0.00025280102 -1.4365724e-23 30.013455 77.11424 9.9223634e-18 0 -961556.58 0 30.013455 -961479.47 9.9223634e-18
0.00385752 -8.1681153e-05 0 -0.037839377 0 0 -9.8092132 0 0 -9.81 0 1.204 30.013982 77.117056 9.9216873e-18 1.8007521e-08 0.0003141108 -1.7779276e-23 30.013982 77.11737 9.9216695e-18 0 -961556.58 0 30.013982 -961479.46 9.9216695e-18
0.0047489 -0.00012320399 0 -0.046583039 0 0 -9.8092131 0 0 -9.81 0 1.204 30.013444 77.125425 9.9230124e-18 4.0349883e-08 0.00038753001 -2.1787984e-23 30.013444 77.125813 9.9229906e-18 0 -961556.58 0 30.013444 -961479.45 9.9229906e-18
0.00581854 -0.00018425455 0 -0.057075433 0 0 -9.8092131 0 0 -9.81 0 1.204 30.00935 77.125286 9.9219819e-18 8.3222703e-08 0.00047553566 -2.6455054e-23 30.00935 77.125761 9.9219555e-18 0 -961556.58 0 30.00935 -961479.45 9.9219555e-18
0.00710206 -0.00027367205 0 -0.069665768 0 0 -9.8092132 0 0 -9.81 0 1.204 30.002206 77.122982 9.9206957e-18 1.6295146e-07 0.00058103153 -3.1891808e-23 30.002206 77.123563 9.9206638e-18 0 -961556.58 0 30.002206 -961479.46 9.9206638e-18
0.00864213 -0.00040422757 0 -0.084772615 0 0 -9.8092132 0 0 -9.81 0 1.204 29.993112 77.121651 9.9202549e-18 3.0848435e-07 0.00070751464 -3.8227173e-23 29.993112 77.122359 9.9202167e-18 0 -961556.58 0 29.993112 -961479.46 9.9202167e-18
0.0104901 -0.00059438281 0 -0.10289971 0 0 -9.8092132 0 0 -9.81 0 1.204 29.980739 77.120928 9.9202691e-18 5.7037145e-07 0.00085920597 -4.5484301e-23 29.98074 77.121787 9.9202236e-18 0 -961556.58 0 29.98074 -961479.46 9.9202236e-18
0.0127077 -0.00087080661 0 -0.12465223 0 0 -9.8092132 0 0 -9.81 0 1.204 29.96289 77.121328 9.9209063e-18 1.0360067e-06 0.0010411321 -5.360979e-23 29.962891 77.122369 9.9208527e-18 0 -961556.58 0 29.962891 -961479.46 9.9208527e-18
0.015369 -0.001272019 0 -0.15075758 0 0 -9.8092132 0 0 -9.81 0 1.204 29.937187 77.122972 9.9222191e-18 1.8553918e-06 0.0012593536 -6.2356985e-23 29.937189 77.124231 9.9221567e-18 0 -961556.58 0 29.937189 -961479.46 9.9221567e-18
0.0185622 -0.0018534443 0 -0.18208064 0 0 -9.8092131 0 0 -9.81 0 1.204 29.900302 77.126031 9.9244012e-18 3.2819905e-06 0.00152113 -7.1164365e-23 29.900305 77.127552 9.92433e-18 0 -961556.58 0 29.900305 -961479.45 9.92433e-18
0.0223941 -0.0026951859 0 -0.21966832 0 0 -9.8092131 0 0 -9.81 0 1.204 29.847028 77.131538 9.9279903e-18 5.741083e-06 0.0018350594 -7.9006416e-23 29.847034 77.133373 9.9279113e-18 0 -961556.58 0 29.847034 -961479.45 9.9279113e-18
0.0269902 -0.0039120231 0 -0.26475272 0 0 -9.809213 0 0 -9.81 0 1.204 29.769663 77.138992 9.9332874e-18 9.9353005e-06 0.0022115308 -8.3834068e-23 29.769672 77.141204 9.9332036e-18 0 -961556.58 0 29.769672 -961479.44 9.9332036e-18
0.0325035 -0.0056698552 0 -0.31883399 0 0 -9.8092129 0 0 -9.81 0 1.204 29.658893 77.148593 9.9409662e-18 1.6992827e-05 0.0026626157 -8.2180315e-23 29.65891 77.151256 9.940884e-18 0 -961556.58 0 29.65891 -961479.43 9.940884e-18
0.039118 -0.0082079557 0 -0.38371712 0 0 -9.8092127 0 0 -9.81 0 1.204 29.498273 77.162578 9.9515614e-18 2.8731032e-05 0.0032032902 -6.7896606e-23 29.498301 77.165782 9.9514935e-18 0 -961556.58 0 29.498301 -961479.41 9.9514935e-18
0.0470554 -0.011871681 0 -0.46157687 0 0 -9.8092125 0 0 -9.81 0 1.204 29.265235 77.18246 9.9664517e-18 4.7872876e-05 0.0038507255 -3.1327163e-23 29.265283 77.186311 9.9664203e-18 0 -961556.58 0 29.265283 -961479.39 9.9664203e-18
0.0565803 -0.017158079 0 -0.55500858 0 0 -9.8092122 0 0 -9.81 0 1.204 28.931074 77.214014 9.9885757e-18 7.840643e-05 0.0046248942 4.1554447e-23 28.931152 77.218639 9.9886173e-18 0 -961556.58 0 28.931152 -961479.36 9.9886173e-18
0.0674212 -0.024327648 0 -0.6613486 0 0 -9.8092117 0 0 -9.81 0 1.204 28.448607 77.260347 1.0020549e-17 0.00012601109 0.0055502355 1.7030789e-22 28.448733 77.265897 1.0020719e-17 0 -961556.58 0 28.448733 -961479.31 1.0020719e-17
0.0785056 -0.03286354 0 -0.77007827 0 0 -9.8092103 0 0 -9.81 0 1.204 27.869054 77.400996 1.0083872e-17 0.00019461748 0.0065844032 2.9962464e-22 27.869249 77.40758 1.0084171e-17 0 -961556.58 0 27.869249 -961479.17 1.0084171e-17
0.0880249 -0.041083058 0 -0.86345536 0 0 -9.8092072 0 0 -9.81 0 1.204 27.299809 77.700465 1.0191543e-17 0.00028121438 0.0075988676 3.0176366e-22 27.30009 77.708064 1.0191845e-17 0 -961556.58 0 27.30009 -961478.87 1.0191845e-17
0.0964793 -0.04908413 0 -0.94638574 0 0 -9.8092012 0 0 -9.81 0 1.204 27.004846 78.290843 1.0369828e-17 0.00037177737 0.0084004936 5.7955809e-23 27.005218 78.299243 1.0369886e-17 0 -961556.58 0 27.005218 -961478.28 1.0369886e-17
0.104165 -0.056937272 0 -1.021777 0 0 -9.8091976 0 0 -9.81 0 1.204 26.52419 78.637842 1.0489576e-17 0.0004664436 0.009073181 -1.0742775e-22 26.524656 78.646915 1.0489468e-17 0 -961556.58 0 26.524656 -961477.93 1.0489468e-17
0.11125 -0.064669124 0 -1.0912765 0 0 -9.8091954 0 0 -9.81 0 1.204 25.944804 78.854006 1.0564154e-17 0.00056500814 0.0096526373 -2.1897098e-22 25.945369 78.863658 1.0563935e-17 0 -961556.58 0 25.945369 -961477.72 1.0563935e-17
0.117848 -0.07229579 0 -1.1559927 0 0 -9.8091939 0 0 -9.81 0 1.204 25.316869 79.003307 1.0621675e-17 0.00066520149 0.010164941 -2.9139444e-22 25.317535 79.013472 1.0621383e-17 0 -961556.58 0 25.317535 -961477.57 1.0621383e-17
0.124028 -0.079814384 0 -1.2166129 0 0 -9.809193 0 0 -9.81 0 1.204 24.66265 79.087024 1.0662336e-17 0.00076716045 0.010622515 -3.3413081e-22 24.663417 79.097646 1.0662002e-17 0 -961556.58 0 24.663417 -961477.48 1.0662002e-17
0.129853 -0.087234698 0 -1.2737567 0 0 -9.8091924 0 0 -9.81 0 1.204 24.015309 79.147758 1.0699577e-17 0.0008705012 0.011039575 -3.6850641e-22 24.01618 79.158798 1.0699209e-17 0 -961556.58 0 24.01618 -961477.42 1.0699209e-17
0.1354 -0.09460186 0 -1.328167 0 0 -9.8091918 0 0 -9.81 0 1.204 23.369444 79.208758 1.0737726e-17 0.00097391859 0.01141436 -3.9350991e-22 23.370418 79.220173 1.0737333e-17 0 -961556.58 0 23.370418 -961477.36 1.0737333e-17
0.140734 -0.10196538 0 -1.3804891 0 0 -9.8091916 0 0 -9.81 0 1.204 22.709204 79.223563 1.0762847e-17 0.0010755459 0.011756276 -4.0390369e-22 22.710279 79.23532 1.0762443e-17 0 -961556.58 0 22.710279 -961477.34 1.0762443e-17
0.145892 -0.10934759 0 -1.4310894 0 0 -9.8091916 0 0 -9.81 0 1.204 22.042732 79.225037 1.0785552e-17 0.0011745204 0.012078888 -4.0528249e-22 22.043906 79.237116 1.0785147e-17 0 -961556.58 0 22.043906 -961477.34 1.0785147e-17
0.150917 -0.11678643 0 -1.4803802 0 0 -9.8091914 0 0 -9.81 0 1.204 21.380319 79.244233 1.0814915e-17 0.0012700573 0.012384704 -4.0700423e-22 21.381589 79.256618 1.0814508e-17 0 -961556.58 0 21.381589 -961477.32 1.0814508e-17
0.15583 -0.12429624 0 -1.5285723 0 0 -9.8091915 0 0 -9.81 0 1.204 20.709692 79.239637 1.0838533e-17 0.0013625119 0.01268216 -4.0197291e-22 20.711054 79.252319 1.0838131e-17 0 -961556.58 0 20.711054 -961477.33 1.0838131e-17
0.16065 -0.13189196 0 -1.5758532 0 0 -9.8091914 0 0 -9.81 0 1.204 20.033922 79.243904 1.0863885e-17 0.0014515189 0.012971042 -3.9399631e-22 20.035374 79.256875 1.0863491e-17 0 -961556.58 0 20.035374 -961477.32 1.0863491e-17
0.165395 -0.13958933 0 -1.6223926 0 0 -9.8091914 0 0 -9.81 0 1.204 19.350501 79.240311 1.0885989e-17 0.001537023 0.013254835 -3.8459611e-22 19.352038 79.253566 1.0885604e-17 0 -961556.58 0 19.352038 -961477.33 1.0885604e-17
0.170071 -0.14738949 0 -1.6682567 0 0 -9.8091914 0 0 -9.81 0 1.204 18.666792 79.247073 1.0914139e-17 0.0016193436 0.013532315 -3.7749404e-22 18.668411 79.260606 1.0913761e-17 0 -961556.58 0 18.668411 -961477.32 1.0913761e-17
0.174692 -0.15530962 0 -1.7135943 0 0 -9.8091913 0 0 -9.81 0 1.204 17.980002 79.256015 1.0943419e-17 0.001698448 0.013804459 -3.7014157e-22 17.981701 79.269819 1.0943048e-17 0 -961556.58 0 17.981701 -961477.31 1.0943048e-17
0.179262 -0.16334457 0 -1.7584166 0 0 -9.8091913 0 0 -9.81 0 1.204 17.281546 79.249662 1.0968191e-17 0.001774872 0.014072731 -3.6018531e-22 17.283321 79.263734 1.0967831e-17 0 -961556.58 0 17.283321 -961477.32 1.0967831e-17
0.183784 -0.17149721 0 -1.8027764 0 0 -9.8091912 0 0 -9.81 0 1.204 16.572362 79.266934 1.0999244e-17 0.0018487598 0.014339042 -3.4853889e-22 16.574211 79.281273 1.0998896e-17 0 -961556.58 0 16.574211 -961477.3 1.0998896e-17
0.188264 -0.1797709 0 -1.8467235 0 0 -9.8091912 0 0 -9.81 0 1.204 15.85662 79.266248 1.1027925e-17 0.0019203127 0.014601492 -3.3582779e-22 15.85854 79.280849 1.1027589e-17 0 -961556.58 0 15.85854 -961477.3 1.1027589e-17
0.192716 -0.18818537 0 -1.8903861 0 0 -9.8091911 0 0 -9.81 0 1.204 15.133348 79.274624 1.1063654e-17 0.0019892368 0.014860398 -3.2510528e-22 15.135337 79.289485 1.1063329e-17 0 -961556.58 0 15.135337 -961477.29 1.1063329e-17
0.197134 -0.19672946 0 -1.9337276 0 0 -9.8091911 0 0 -9.81 0 1.204 14.393542 79.275837 1.1087502e-17 0.0020561458 0.015117344 -3.1420931e-22 14.395598 79.290954 1.1087187e-17 0 -961556.58 0 14.395598 -961477.29 1.1087187e-17
0.201524 -0.20540795 0 -1.9767918 0 0 -9.8091909 0 0 -9.81 0 1.204 13.650401 79.289042 1.1119374e-17 0.002120874 0.015370741 -3.037506e-22 13.652522 79.304413 1.111907e-17 0 -961556.58 0 13.652522 -961477.28 1.111907e-17
0.205883 -0.2142097 0 -2.0195431 0 0 -9.8091908 0 0 -9.81 0 1.204 12.888264 79.298776 1.1151892e-17 0.0021834174 0.015620548 -2.9196892e-22 12.890447 79.314397 1.11516e-17 0 -961556.58 0 12.890447 -961477.27 1.11516e-17
0.210217 -0.22314801 0 -2.0620624 0 0 -9.8091907 0 0 -9.81 0 1.204 12.121218 79.305626 1.1182636e-17 0.0022440243 0.015867012 -2.7894512e-22 12.123462 79.321493 1.1182357e-17 0 -961556.58 0 12.123462 -961477.26 1.1182357e-17
0.214525 -0.23221205 0 -2.1043141 0 0 -9.8091907 0 0 -9.81 0 1.204 11.34017 79.307585 1.1213611e-17 0.0023028189 0.016111346 -2.6581282e-22 11.342473 79.323697 1.1213345e-17 0 -961556.58 0 11.342473 -961477.26 1.1213345e-17
0.218813 -0.24141584 0 -2.1463765 0 0 -9.8091909 0 0 -9.81 0 1.204 10.545864 79.289391 1.1235757e-17 0.0023591675 0.016353291 -2.4904606e-22 10.548223 79.305744 1.1235508e-17 0 -961556.58 0 10.548223 -961477.27 1.1235508e-17
0.223078 -0.25074881 0 -2.1882138 0 0 -9.8091909 0 0 -9.81 0 1.204 9.7429309 79.289724 1.1267526e-17 0.0024139259 0.016593605 -2.3519294e-22 9.7453448 79.306317 1.126729e-17 0 -961556.58 0 9.7453448 -961477.27 1.126729e-17
0.22732 -0.26020859 0 -2.2298281 0 0 -9.8091908 0 0 -9.81 0 1.204 8.9328826 79.299481 1.1298962e-17 0.0024673484 0.016831266 -2.2134087e-22 8.9353499 79.316312 1.129874e-17 0 -961556.58 0 8.9353499 -961477.26 1.129874e-17
0.23154 -0.26979287 0 -2.2712217 0 0 -9.8091907 0 0 -9.81 0 1.204 8.1133914 79.308053 1.1331798e-17 0.0025194472 0.017066247 -2.0757577e-22 8.1159108 79.32512 1.133159e-17 0 -961556.58 0 8.1159108 -961477.25 1.133159e-17
0.235741 -0.27950806 0 -2.3124329 0 0 -9.8091906 0 0 -9.81 0 1.204 7.2824023 79.316497 1.1364529e-17 0.0025703982 0.01729835 -1.9307961e-22 7.2849727 79.333795 1.1364336e-17 0 -961556.58 0 7.2849727 -961477.25 1.1364336e-17
0.239924 -0.28935223 0 -2.3534632 0 0 -9.8091906 0 0 -9.81 0 1.204 6.4377683 79.322089 1.1396847e-17 0.0026203076 0.017527737 -1.7754795e-22 6.4403886 79.339617 1.139667e-17 0 -961556.58 0 6.4403886 -961477.24 1.139667e-17
0.244085 -0.2993146 0 -2.3942784 0 0 -9.8091905 0 0 -9.81 0 1.204 5.5820126 79.329284 1.1429949e-17 0.0026692004 0.017754473 -1.6199079e-22 5.5846818 79.347038 1.1429787e-17 0 -961556.58 0 5.5846818 -961477.23 1.1429787e-17
0.248228 -0.30940192 0 -2.4349157 0 0 -9.8091904 0 0 -9.81 0 1.204 4.7178508 79.338753 1.1464013e-17 0.0027170803 0.01797815 -1.4655292e-22 4.7205679 79.356731 1.1463867e-17 0 -961556.58 0 4.7205679 -961477.22 1.1463867e-17
0.252353 -0.31961236 0 -2.4753767 0 0 -9.8091903 0 0 -9.81 0 1.204 3.8416985 79.344103 1.149708e-17 0.0027639096 0.018199224 -1.3056875e-22 3.8444624 79.362302 1.149695e-17 0 -961556.58 0 3.8444624 -961477.22 1.149695e-17
0.256456 -0.32993502 0 -2.5156278 0 0 -9.8091903 0 0 -9.81 0 1.204 2.9537443 79.35112 1.1529911e-17 0.0028096413 0.018417353 -1.1399425e-22 2.9565539 79.369538 1.1529797e-17 0 -961556.58 0 2.9565539 -961477.21 1.1529797e-17
0.260542 -0.34037697 0 -2.5557056 0 0 -9.8091901 0 0 -9.81 0 1.204 2.0581842 79.361687 1.1564218e-17 0.0028541192 0.018632997 -9.8438719e-23 2.0610384 79.38032 1.1564119e-17 0 -961556.58 0 2.0610384 -961477.2 1.1564119e-17
0.264606 -0.35092725 0 -2.5955772 0 0 -9.8091901 0 0 -9.81 0 1.204 1.1508577 79.369091 1.1598181e-17 0.0028972559 0.018847065 -8.2616742e-23 1.153755 79.387938 1.1598099e-17 0 -961556.58 0 1.153755 -961477.19 1.1598099e-17
0.268654 -0.36159313 0 -2.6352784 0 0 -9.80919 0 0 -9.81 0 1.204 0.23554196 79.380287 1.1633228e-17 0.0029389492 0.019058464 -6.7176317e-23 0.23848091 79.399346 1.1633161e-17 0 -961556.58 0 0.23848091 -961477.18 1.1633161e-17
0.272684 -0.37237291 0 -2.6748105 0 -0 -9.8091899 0 0 -9.81 0 1.204 -0.69056986 79.388526 1.1668273e-17 0.0029791827 0.019267826 -5.181558e-23 -0.68759068 79.407794 1.1668221e-17 0 -961556.58 0 -0.68759068 -961477.17 1.1668221e-17
0.276693 -0.38325552 0 -2.7141414 0 -0 -9.8091898 0 0 -9.81 0 1.204 -1.6256942 79.396928 1.1703391e-17 0.0030178618 0.019475112 -3.6176814e-23 -1.6226763 79.416403 1.1703355e-17 0 -961556.58 0 -1.6226763 -961477.16 1.1703355e-17
0.280686 -0.39424851 0 -2.753306 0 -0 -9.8091897 0 0 -9.81 0 1.204 -2.5683853 79.408519 1.1739589e-17 0.0030548601 0.019679569 -2.1006073e-23 -2.5653304 79.428199 1.1739568e-17 0 -961556.58 0 -2.5653304 -961477.15 1.1739568e-17
0.284659 -0.40534078 0 -2.7922729 0 -0 -9.8091896 0 0 -9.81 0 1.204 -3.5216801 79.416992 1.1775532e-17 0.0030900873 0.019881768 -5.6115023e-24 -3.51859 79.436874 1.1775526e-17 0 -961556.58 0 -3.51859 -961477.14 1.1775526e-17
0.288614 -0.41654002 0 -2.8310763 0 -0 -9.8091895 0 0 -9.81 0 1.204 -4.4822719 79.427185 1.1812299e-17 0.0031231543 0.020081234 9.3650935e-24 -4.4791487 79.447266 1.1812309e-17 0 -961556.58 0 -4.4791487 -961477.13 1.1812309e-17
0.29255 -0.42783508 0 -2.8696852 0 -0 -9.8091894 0 0 -9.81 0 1.204 -5.4525034 79.432826 1.1848568e-17 0.0031538508 0.020278503 2.4700324e-23 -5.4493496 79.453104 1.1848593e-17 0 -961556.58 0 -5.4493496 -961477.13 1.1848593e-17
0.29647 -0.43923383 0 -2.9081334 0 -0 -9.8091893 0 0 -9.81 0 1.204 -6.4305533 79.442065 1.1885806e-17 0.0031820868 0.020473131 3.9779241e-23 -6.4273712 79.462538 1.1885846e-17 0 -961556.58 0 -6.4273712 -961477.12 1.1885846e-17
0.30037 -0.45072507 0 -2.9463903 0 -0 -9.8091892 0 0 -9.81 0 1.204 -7.4184466 79.447754 1.1922671e-17 0.0032077614 0.020665599 5.658188e-23 -7.4152389 79.46842 1.1922727e-17 0 -961556.58 0 -7.4152389 -961477.11 1.1922727e-17
0.304251 -0.4623071 0 -2.9844577 0 -0 -9.8091892 0 0 -9.81 0 1.204 -8.4129828 79.456234 1.1960188e-17 0.0032307417 0.020855545 7.3053047e-23 -8.4097521 79.477089 1.1960261e-17 0 -961556.58 0 -8.4097521 -961477.1 1.1960261e-17
0.308116 -0.47398799 0 -3.0223684 0 -0 -9.8091891 0 0 -9.81 0 1.204 -9.4150881 79.462803 1.1997407e-17 0.0032508097 0.021044861 8.9556167e-23 -9.4118373 79.483848 1.1997496e-17 0 -961556.58 0 -9.4118373 -961477.1 1.1997496e-17
0.311962 -0.48575652 0 -3.0600926 0 -0 -9.809189 0 0 -9.81 0 1.204 -10.425981 79.466781 1.2033948e-17 0.003268072 0.021232756 1.0636582e-22 -10.422712 79.488013 1.2034055e-17 0 -961556.58 0 -10.422712 -961477.09 1.2034055e-17
0.315789 -0.49761106 0 -3.0976321 0 -0 -9.809189 0 0 -9.81 0 1.204 -11.443626 79.473919 1.2071386e-17 0.003282467 0.021418933 1.2258054e-22 -11.440344 79.495338 1.2071509e-17 0 -961556.58 0 -11.440344 -961477.08 1.2071509e-17
0.319597 -0.50955005 0 -3.1349884 0 -0 -9.8091889 0 0 -9.81 0 1.204 -12.469552 79.48094 1.2109192e-17 0.0032938034 0.021603398 1.3851456e-22 -12.466258 79.502543 1.210933e-17 0 -961556.58 0 -12.466258 -961477.08 1.210933e-17
0.323387 -0.52157191 0 -3.1721633 0 -0 -9.8091888 0 0 -9.81 0 1.204 -13.504447 79.48941 1.2147735e-17 0.0033019888 0.021785337 1.540594e-22 -13.501145 79.511195 1.2147889e-17 0 -961556.58 0 -13.501145 -961477.07 1.2147889e-17
0.327158 -0.53367513 0 -3.2091583 0 -0 -9.8091887 0 0 -9.81 0 1.204 -14.549163 79.500129 1.2187398e-17 0.0033071132 0.021963562 1.6901164e-22 -14.545856 79.522093 1.2187567e-17 0 -961556.58 0 -14.545856 -961477.06 1.2187567e-17
0.330914 -0.54586811 0 -3.2460046 0 -0 -9.8091886 0 0 -9.81 0 1.204 -15.601514 79.514083 1.2228344e-17 0.0033092595 0.022137158 1.8355461e-22 -15.598204 79.53622 1.2228527e-17 0 -961556.58 0 -15.598204 -961477.04 1.2228527e-17
0.334653 -0.5581396 0 -3.2826739 0 -0 -9.8091884 0 0 -9.81 0 1.204 -16.662864 79.527426 1.2269592e-17 0.003308459 0.022306722 1.9817152e-22 -16.659555 79.549732 1.226979e-17 0 -961556.58 0 -16.659555 -961477.03 1.226979e-17
0.338373 -0.57048814 0 -3.3191677 0 -0 -9.8091883 0 0 -9.81 0 1.204 -17.730337 79.543633 1.231175e-17 0.0033046473 0.022472566 2.1207182e-22 -17.727032 79.566106 1.2311962e-17 0 -961556.58 0 -17.727032 -961477.01 1.2311962e-17
0.342079 -0.58292229 0 -3.3555165 0 -0 -9.8091881 0 0 -9.81 0 1.204 -18.804341 79.559443 1.2354205e-17 0.003297693 0.022635101 2.2563273e-22 -18.801043 79.582078 1.235443e-17 0 -961556.58 0 -18.801043 -961477 1.235443e-17
0.345767 -0.59543079 0 -3.3916926 0 -0 -9.8091879 0 0 -9.81 0 1.204 -19.885896 79.572741 1.2396257e-17 0.0032873073 0.022795811 2.3941318e-22 -19.882608 79.595537 1.2396496e-17 0 -961556.58 0 -19.882608 -961476.98 1.2396496e-17
0.34944 -0.6080223 0 -3.4277259 0 -0 -9.8091878 0 0 -9.81 0 1.204 -20.971312 79.587293 1.2438463e-17 0.0032729385 0.022956126 2.5280313e-22 -20.968039 79.61025 1.2438716e-17 0 -961556.58 0 -20.968039 -961476.97 1.2438716e-17
0.353096 -0.62068553 0 -3.4635893 0 -0 -9.8091877 0 0 -9.81 0 1.204 -22.065858 79.600973 1.2481117e-17 0.0032543316 0.023114885 2.6598997e-22 -22.062603 79.624088 1.2481383e-17 0 -961556.58 0 -22.062603 -961476.96 1.2481383e-17
0.356735 -0.63341915 0 -3.4992842 0 -0 -9.8091875 0 0 -9.81 0 1.204 -23.166481 79.61857 1.2524978e-17 0.0032312952 0.023271218 2.783688e-22 -23.16325 79.641841 1.2525257e-17 0 -961556.58 0 -23.16325 -961476.94 1.2525257e-17
0.36036 -0.64623195 0 -3.5348397 0 -0 -9.8091873 0 0 -9.81 0 1.204 -24.272636 79.635103 1.2568898e-17 0.0032030772 0.023425566 2.9053589e-22 -24.269433 79.658528 1.2569189e-17 0 -961556.58 0 -24.269433 -961476.92 1.2569189e-17
0.363968 -0.65911265 0 -3.5702294 0 -0 -9.8091872 0 0 -9.81 0 1.204 -25.384794 79.64724 1.2611742e-17 0.0031696865 0.023577815 3.0325301e-22 -25.381625 79.670817 1.2612045e-17 0 -961556.58 0 -25.381625 -961476.91 1.2612045e-17
0.367561 -0.67207012 0 -3.6054819 0 -0 -9.809187 0 0 -9.81 0 1.204 -26.501008 79.660332 1.2654648e-17 0.003130966 0.023727131 3.1574868e-22 -26.497877 79.684059 1.2654964e-17 0 -961556.58 0 -26.497877 -961476.9 1.2654964e-17
0.371139 -0.68509307 0 -3.640571 0 -0 -9.809187 0 0 -9.81 0 1.204 -27.623051 79.669101 1.2696507e-17 0.0030867694 0.02387377 3.2885582e-22 -27.619965 79.692975 1.2696835e-17 0 -961556.58 0 -27.619965 -961476.89 1.2696835e-17
0.374699 -0.69818028 0 -3.6754982 0 -0 -9.8091868 0 0 -9.81 0 1.204 -28.749467 79.679522 1.2738543e-17 0.0030370224 0.024017249 3.4166507e-22 -28.74643 79.703539 1.2738884e-17 0 -961556.58 0 -28.74643 -961476.88 1.2738884e-17
0.378246 -0.71134072 0 -3.7102915 0 -0 -9.8091868 0 0 -9.81 0 1.204 -29.879222 79.686607 1.2779531e-17 0.0029813088 0.024159197 3.5477753e-22 -29.87624 79.710766 1.2779886e-17 0 -961556.58 0 -29.87624 -961476.87 1.2779886e-17
0.381777 -0.72456312 0 -3.7449253 0 -0 -9.8091868 0 0 -9.81 0 1.204 -31.014708 79.688646 1.2819498e-17 0.0029192386 0.024300883 3.6831045e-22 -31.011789 79.712946 1.2819866e-17 0 -961556.58 0 -31.011789 -961476.87 1.2819866e-17
0.385294 -0.73785652 0 -3.7794272 0 -0 -9.8091867 0 0 -9.81 0 1.204 -32.158857 79.697831 1.2861957e-17 0.0028530194 0.024438578 3.8233906e-22 -32.156004 79.72227 1.2862339e-17 0 -961556.58 0 -32.156004 -961476.86 1.2862339e-17
0.388796 -0.75120966 0 -3.8137721 0 -0 -9.8091866 0 0 -9.81 0 1.204 -33.3098 79.705562 1.2904396e-17 0.0027831035 0.024573285 3.9699316e-22 -33.307017 79.730135 1.2904793e-17 0 -961556.58 0 -33.307017 -961476.85 1.2904793e-17
0.392278 -0.76461118 0 -3.8479354 0 -0 -9.8091865 0 0 -9.81 0 1.204 -34.466022 79.716468 1.2948228e-17 0.0027096185 0.024704648 4.1139533e-22 -34.463313 79.741172 1.294864e-17 0 -961556.58 0 -34.463313 -961476.84 1.294864e-17
0.39573 -0.7780091 0 -3.8817915 0 -0 -9.8091863 0 0 -9.81 0 1.204 -35.625435 79.729675 1.2992628e-17 0.0026330715 0.024833596 4.2717861e-22 -35.622802 79.754508 1.2993055e-17 0 -961556.58 0 -35.622802 -961476.83 1.2993055e-17
0.399148 -0.79139232 0 -3.915321 0 -0 -9.8091861 0 0 -9.81 0 1.204 -36.781931 79.75238 1.3039339e-17 0.0025548368 0.024959373 4.3993829e-22 -36.779376 79.77734 1.3039779e-17 0 -961556.58 0 -36.779376 -961476.8 1.3039779e-17
0.402536 -0.80476987 0 -3.9485541 0 -0 -9.8091859 0 0 -9.81 0 1.204 -37.935325 79.772301 1.3085495e-17 0.002475403 0.025082294 4.5157954e-22 -37.932849 79.797384 1.3085946e-17 0 -961556.58 0 -37.932849 -961476.78 1.3085946e-17
0.405894 -0.81814078 0 -3.981496 0 -0 -9.8091857 0 0 -9.81 0 1.204 -39.088366 79.787129 1.3130276e-17 0.0023949931 0.025202911 4.6346873e-22 -39.085971 79.812332 1.3130739e-17 0 -961556.58 0 -39.085971 -961476.77 1.3130739e-17
0.409221 -0.83149439 0 -4.0141277 0 -0 -9.8091856 0 0 -9.81 0 1.204 -40.240665 79.801635 1.3174645e-17 0.0023137825 0.025321276 4.7529276e-22 -40.238351 79.826956 1.3175121e-17 0 -961556.58 0 -40.238351 -961476.75 1.3175121e-17
0.412519 -0.84483956 0 -4.0464781 0 -0 -9.8091854 0 0 -9.81 0 1.204 -41.390984 79.817457 1.3218924e-17 0.0022319267 0.025437125 4.8656797e-22 -41.388752 79.842894 1.3219411e-17 0 -961556.58 0 -41.388752 -961476.74 1.3219411e-17
0.415791 -0.85818506 0 -4.0785747 0 -0 -9.8091853 0 0 -9.81 0 1.204 -42.556427 79.830547 1.3263646e-17 0.0021492716 0.025550875 4.9691573e-22 -42.554277 79.856098 1.3264143e-17 0 -961556.58 0 -42.554277 -961476.72 1.3264143e-17
0.419035 -0.87152046 0 -4.1103988 0 -0 -9.8091852 0 0 -9.81 0 1.204 -43.706734 79.841454 1.3306799e-17 0.0020657981 0.02566225 5.0780614e-22 -43.704669 79.867117 1.3307307e-17 0 -961556.58 0 -43.704669 -961476.71 1.3307307e-17
0.422252 -0.88484501 0 -4.1419546 0 -0 -9.809185 0 0 -9.81 0 1.204 -44.85571 79.855382 1.3350475e-17 0.0019819294 0.025771285 5.1886587e-22 -44.853728 79.881153 1.3350993e-17 0 -961556.58 0 -44.853728 -961476.7 1.3350993e-17
0.425442 -0.89815795 0 -4.1732466 0 -0 -9.8091849 0 0 -9.81 0 1.204 -46.002687 79.868718 1.3394009e-17 0.0018970368 0.025877772 5.2903988e-22 -46.00079 79.894596 1.3394538e-17 0 -961556.58 0 -46.00079 -961476.69 1.3394538e-17
0.428608 -0.91146785 0 -4.2043003 0 -0 -9.8091848 0 0 -9.81 0 1.204 -47.147287 79.881717 1.3437761e-17 0.0018105138 0.02598109 5.358106e-22 -47.145476 79.907698 1.3438297e-17 0 -961556.58 0 -47.145476 -961476.67 1.3438297e-17
0.43175 -0.92477396 0 -4.2351193 0 -0 -9.8091847 0 0 -9.81 0 1.204 -48.296079 79.890661 1.3480353e-17 0.0017229846 0.026081715 5.507888e-22 -48.294356 79.916742 1.3480904e-17 0 -961556.58 0 -48.294356 -961476.66 1.3480904e-17
0.434866 -0.93806641 0 -4.2656861 0 -0 -9.8091846 0 0 -9.81 0 1.204 -49.448949 79.901637 1.3522861e-17 0.0016340876 0.02617843 5.6627188e-22 -49.447315 79.927815 1.3523427e-17 0 -961556.58 0 -49.447315 -961476.65 1.3523427e-17
0.437959 -0.95135362 0 -4.296025 0 -0 -9.8091844 0 0 -9.81 0 1.204 -50.594657 79.918149 1.3567093e-17 0.001545073 0.026268152 5.7827569e-22 -50.593112 79.944417 1.3567672e-17 0 -961556.58 0 -50.593112 -961476.64 1.3567672e-17
0.441029 -0.96463493 0 -4.3261393 0 -0 -9.8091843 0 0 -9.81 0 1.204 -51.73709 79.930085 1.3610179e-17 0.0014557184 0.02635538 5.9093716e-22 -51.735634 79.95644 1.361077e-17 0 -961556.58 0 -51.735634 -961476.62 1.361077e-17
0.444076 -0.97790968 0 -4.3560322 0 -0 -9.8091841 0 0 -9.81 0 1.204 -52.879976 79.945283 1.3654235e-17 0.0013658119 0.026441503 6.0282755e-22 -52.87861 79.971725 1.3654838e-17 0 -961556.58 0 -52.87861 -961476.61 1.3654838e-17
0.447102 -0.99117724 0 -4.3857068 0 -0 -9.8091839 0 0 -9.81 0 1.204 -54.023175 79.962326 1.3699098e-17 0.0012752522 0.0265261 6.1415333e-22 -54.0219 79.988852 1.3699712e-17 0 -961556.58 0 -54.0219 -961476.59 1.3699712e-17
0.450107 -1.0044458 0 -4.4151855 0 -0 -9.8091838 0 0 -9.81 0 1.204 -55.166248 79.980478 1.3744619e-17 0.0011840854 0.026608974 6.2521202e-22 -55.165064 80.007087 1.3745244e-17 0 -961556.58 0 -55.165064 -961476.57 1.3745244e-17
0.45309 -1.017706 0 -4.4444515 0 -0 -9.8091836 0 0 -9.81 0 1.204 -56.309699 79.997699 1.3790299e-17 0.0010932253 0.026690144 6.3755824e-22 -56.308606 80.024389 1.3790936e-17 0 -961556.58 0 -56.308606 -961476.56 1.3790936e-17
0.456053 -1.0309572 0 -4.4735079 0 -0 -9.8091834 0 0 -9.81 0 1.204 -57.453331 80.01805 1.3836721e-17 0.001003234 0.026769519 6.466718e-22 -57.452328 80.044819 1.3837368e-17 0 -961556.58 0 -57.452328 -961476.54 1.3837368e-17
0.458996 -1.0442076 0 -4.502376 0 -0 -9.8091832 0 0 -9.81 0 1.204 -58.596182 80.038337 1.3883058e-17 0.00091504331 0.026847688 6.5418885e-22 -58.595267 80.065185 1.3883712e-17 0 -961556.58 0 -58.595267 -961476.51 1.3883712e-17
0.461918 -1.0574479 0 -4.5310398 0 -0 -9.809183 0 0 -9.81 0 1.204 -59.738985 80.057574 1.3929245e-17 0.00082840839 0.026924996 6.6188467e-22 -59.738156 80.084499 1.3929907e-17 0 -961556.58 0 -59.738156 -961476.5 1.3929907e-17
0.464821 -1.0706862 0 -4.5595202 0 -0 -9.8091827 0 0 -9.81 0 1.204 -60.881083 80.080248 1.3976062e-17 0.00074361377 0.027001031 6.6863325e-22 -60.880339 80.107249 1.397673e-17 0 -961556.58 0 -60.880339 -961476.47 1.397673e-17
0.467704 -1.0839135 0 -4.5878014 0 -0 -9.8091825 0 0 -9.81 0 1.204 -62.021786 80.101094 1.4022502e-17 0.00066048711 0.027075714 6.7534938e-22 -62.021126 80.128169 1.4023178e-17 0 -961556.58 0 -62.021126 -961476.45 1.4023178e-17
0.470569 -1.0971377 0 -4.6159039 0 -0 -9.8091823 0 0 -9.81 0 1.204 -63.158915 80.125338 1.4072209e-17 0.0005793074 0.027148626 6.8224529e-22 -63.158336 80.152486 1.4072892e-17 0 -961556.58 0 -63.158336 -961476.43 1.4072892e-17
0.473416 -1.1103582 0 -4.6438298 0 -0 -9.809182 0 0 -9.81 0 1.204 -64.29858 80.147213 1.4117675e-17 0.00050026473 0.027219311 6.9455497e-22 -64.29808 80.174432 1.411837e-17 0 -961556.58 0 -64.29808 -961476.41 1.411837e-17
0.476245 -1.1235747 0 -4.6715811 0 -0 -9.8091818 0 0 -9.81 0 1.204 -65.437118 80.169234 1.4164538e-17 0.00042384476 0.027287933 7.0587203e-22 -65.436694 80.196522 1.4165244e-17 0 -961556.58 0 -65.436694 -961476.38 1.4165244e-17
0.479055 -1.1367783 0 -4.6991428 0 -0 -9.8091816 0 0 -9.81 0 1.204 -66.575049 80.190407 1.4211106e-17 0.00035077696 0.02735516 7.1781557e-22 -66.574698 80.217762 1.4211824e-17 0 -961556.58 0 -66.574698 -961476.36 1.4211824e-17
0.481847 -1.1499768 0 -4.7265342 0 -0 -9.8091814 0 0 -9.81 0 1.204 -67.708598 80.212939 1.4258937e-17 0.00028149296 0.027419949 7.2875477e-22 -67.708317 80.240359 1.4259666e-17 0 -961556.58 0 -67.708317 -961476.34 1.4259666e-17
0.484623 -1.1631698 0 -4.7537574 0 -0 -9.8091811 0 0 -9.81 0 1.204 -68.841969 80.237414 1.4309009e-17 0.00021610557 0.027481746 7.3902869e-22 -68.841753 80.264896 1.4309748e-17 0 -961556.58 0 -68.841753 -961476.32 1.4309748e-17
0.487381 -1.1763568 0 -4.7808143 0 -0 -9.8091809 0 0 -9.81 0 1.204 -69.97293 80.2584 1.4356946e-17 0.00015479655 0.027541411 7.5010651e-22 -69.972775 80.285942 1.4357696e-17 0 -961556.58 0 -69.972775 -961476.29 1.4357696e-17
0.490123 -1.1895375 0 -4.8077069 0 -0 -9.8091807 0 0 -9.81 0 1.204 -71.105644 80.2806 1.4404884e-17 9.7594591e-05 0.027599434 7.6113262e-22 -71.105546 80.308199 1.4405646e-17 0 -961556.58 0 -71.105546 -961476.27 1.4405646e-17
0.492849 -1.2027193 0 -4.834453 0 -0 -9.8091805 0 0 -9.81 0 1.204 -72.236198 80.301084 1.4452032e-17 4.4227613e-05 0.027655897 7.7276627e-22 -72.236154 80.32874 1.4452805e-17 0 -961556.58 0 -72.236154 -961476.25 1.4452805e-17
0.495559 -1.215894 0 -4.8610384 0 -0 -9.8091803 0 0 -9.81 0 1.204 -73.367187 80.321181 1.4499268e-17 -5.3210096e-06 0.027711034 7.852879e-22 -73.367193 80.348892 1.4500053e-17 0 -961556.58 0 -73.367193 -961476.23 1.4500053e-17
0.498254 -1.229061 0 -4.8874648 0 -0 -9.80918 0 0 -9.81 0 1.204 -74.49713 80.343046 1.454669e-17 -5.1048969e-05 0.027764725 7.9765028e-22 -74.497181 80.370811 1.4547488e-17 0 -961556.58 0 -74.497181 -961476.21 1.4547488e-17
0.500932 -1.2422201 0 -4.9137339 0 -0 -9.8091798 0 0 -9.81 0 1.204 -75.62559 80.36525 1.459433e-17 -9.3115958e-05 0.027816993 8.1018309e-22 -75.625683 80.393067 1.4595141e-17 0 -961556.58 0 -75.625683 -961476.19 1.4595141e-17
0.503594 -1.2553708 0 -4.9398476 0 -0 -9.8091796 0 0 -9.81 0 1.204 -76.749407 80.388102 1.4643636e-17 -0.00013138601 0.027867657 8.2443436e-22 -76.749539 80.41597 1.464446e-17 0 -961556.58 0 -76.749539 -961476.16 1.464446e-17
0.506242 -1.2685206 0 -4.9658229 0 -0 -9.8091794 0 0 -9.81 0 1.204 -77.879519 80.40907 1.4688962e-17 -0.00016557852 0.027917517 8.4112284e-22 -77.879685 80.436988 1.4689803e-17 0 -961556.58 0 -77.879685 -961476.14 1.4689803e-17
0.508874 -1.2816613 0 -4.9916461 0 -0 -9.8091792 0 0 -9.81 0 1.204 -79.007896 80.428415 1.4734539e-17 -0.00019648376 0.027966555 8.5835503e-22 -79.008092 80.456381 1.4735397e-17 0 -961556.58 0 -79.008092 -961476.12 1.4735397e-17
0.511492 -1.2947927 0 -5.0173187 0 -0 -9.8091789 0 0 -9.81 0 1.204 -80.13508 80.450776 1.4781228e-17 -0.00022454695 0.028014717 8.7460567e-22 -80.135304 80.47879 1.4782103e-17 0 -961556.58 0 -80.135304 -961476.1 1.4782103e-17
0.514095 -1.307922 0 -5.0428573 0 -0 -9.8091787 0 0 -9.81 0 1.204 -81.259956 80.473233 1.4827932e-17 -0.00025025124 0.028062568 8.8787729e-22 -81.260207 80.501296 1.482882e-17 0 -961556.58 0 -81.260207 -961476.08 1.482882e-17
0.516684 -1.3210412 0 -5.0682486 0 -0 -9.8091785 0 0 -9.81 0 1.204 -82.384516 80.494817 1.4874553e-17 -0.00027433809 0.028110328 9.0096139e-22 -82.384791 80.522927 1.4875454e-17 0 -961556.58 0 -82.384791 -961476.06 1.4875454e-17
0.519257 -1.3341502 0 -5.0934941 0 -0 -9.8091782 0 0 -9.81 0 1.204 -83.50639 80.52231 1.4924257e-17 -0.0002976775 0.028157008 9.1146215e-22 -83.506688 80.550468 1.4925168e-17 0 -961556.58 0 -83.506688 -961476.03 1.4925168e-17
0.521818 -1.347256 0 -5.1186097 0 -0 -9.8091779 0 0 -9.81 0 1.204 -84.626681 80.548313 1.4973441e-17 -0.00032119342 0.028202844 9.2190384e-22 -84.627003 80.576516 1.4974363e-17 0 -961556.58 0 -84.627003 -961476 1.4974363e-17
0.524364 -1.3603509 0 -5.1435826 0 -0 -9.8091777 0 0 -9.81 0 1.204 -85.746822 80.572266 1.5021704e-17 -0.00034555933 0.028247994 9.3854089e-22 -85.747168 80.600514 1.5022643e-17 0 -961556.58 0 -85.747168 -961475.98 1.5022643e-17
0.526896 -1.373442 0 -5.1684283 0 -0 -9.8091774 0 0 -9.81 0 1.204 -86.867662 80.598956 1.5070253e-17 -0.00037122451 0.028292444 9.5523676e-22 -86.868033 80.627248 1.5071208e-17 0 -961556.58 0 -86.868033 -961475.95 1.5071208e-17
0.529415 -1.3865216 0 -5.1931341 0 -0 -9.8091772 0 0 -9.81 0 1.204 -87.986585 80.623555 1.5118205e-17 -0.00039847552 0.028336315 9.7276896e-22 -87.986984 80.651891 1.5119178e-17 0 -961556.58 0 -87.986984 -961475.93 1.5119178e-17
0.531921 -1.3995969 0 -5.2177152 0 -0 -9.8091769 0 0 -9.81 0 1.204 -89.105192 80.650428 1.5166559e-17 -0.00042756522 0.02837949 9.894664e-22 -89.105619 80.678808 1.5167549e-17 0 -961556.58 0 -89.105619 -961475.9 1.5167549e-17
0.534413 -1.4126601 0 -5.2421592 0 -0 -9.8091766 0 0 -9.81 0 1.204 -90.220982 80.676338 1.5214904e-17 -0.00045853658 0.02842188 1.0065699e-21 -90.221441 80.70476 1.521591e-17 0 -961556.58 0 -90.221441 -961475.88 1.521591e-17
0.536892 -1.4257184 0 -5.2664811 0 -0 -9.8091763 0 0 -9.81 0 1.204 -91.335794 80.704958 1.5263836e-17 -0.00049100462 0.028463433 1.0228888e-21 -91.336285 80.733422 1.5264859e-17 0 -961556.58 0 -91.336285 -961475.85 1.5264859e-17
0.53936 -1.4387714 0 -5.290682 0 -0 -9.8091761 0 0 -9.81 0 1.204 -92.447138 80.732554 1.5312753e-17 -0.00052479839 0.028504156 1.0398038e-21 -92.447662 80.761059 1.5313793e-17 0 -961556.58 0 -92.447662 -961475.82 1.5313793e-17
0.541813 -1.4518116 0 -5.3147498 0 -0 -9.8091758 0 0 -9.81 0 1.204 -93.554577 80.762635 1.5363294e-17 -0.00055967194 0.028544041 1.0554377e-21 -93.555137 80.791179 1.5364349e-17 0 -961556.58 0 -93.555137 -961475.79 1.5364349e-17
0.544255 -1.4648461 0 -5.3386989 0 -0 -9.8091754 0 0 -9.81 0 1.204 -94.656445 80.796173 1.541585e-17 -0.00059468158 0.028583392 1.0545722e-21 -94.65704 80.824757 1.5416905e-17 0 -961556.58 0 -94.65704 -961475.76 1.5416905e-17
0.546683 -1.4778673 0 -5.3625176 0 -0 -9.8091752 0 0 -9.81 0 1.204 -95.793617 80.812439 1.545299e-17 -0.00062883889 0.028622235 1.0606327e-21 -95.794246 80.841061 1.545405e-17 0 -961556.58 0 -95.794246 -961475.74 1.545405e-17
0.549099 -1.4908823 0 -5.3862199 0 -0 -9.809175 0 0 -9.81 0 1.204 -96.913172 80.834102 1.5496091e-17 -0.00066233236 0.02866077 1.0632751e-21 -96.913835 80.862763 1.5497154e-17 0 -961556.58 0 -96.913835 -961475.72 1.5497154e-17
0.551503 -1.5038836 0 -5.4097942 0 -0 -9.8091748 0 0 -9.81 0 1.204 -98.024108 80.85681 1.5540967e-17 -0.0006953457 0.028698985 1.065348e-21 -98.024803 80.885509 1.5542033e-17 0 -961556.58 0 -98.024803 -961475.69 1.5542033e-17
0.553894 -1.5168781 0 -5.4332545 0 -0 -9.8091745 0 0 -9.81 0 1.204 -99.133358 80.883149 1.5587148e-17 -0.00072797663 0.028736806 1.0659861e-21 -99.134086 80.911885 1.5588214e-17 0 -961556.58 0 -99.134086 -961475.67 1.5588214e-17
0.556273 -1.5298586 0 -5.4565892 0 -0 -9.8091743 0 0 -9.81 0 1.204 -100.23994 80.90838 1.5633231e-17 -0.00075999617 0.028774443 1.0667904e-21 -100.2407 80.937155 1.5634298e-17 0 -961556.58 0 -100.2407 -961475.64 1.5634298e-17
0.558639 -1.542825 0 -5.4797997 0 -0 -9.809174 0 0 -9.81 0 1.204 -101.34662 80.935764 1.567966e-17 -0.0007916823 0.028812013 1.0665715e-21 -101.34741 80.964576 1.5680726e-17 0 -961556.58 0 -101.34741 -961475.62 1.5680726e-17
0.560993 -1.5557769 0 -5.5028872 0 -0 -9.8091737 0 0 -9.81 0 1.204 -102.45111 80.963282 1.5726004e-17 -0.00082314509 0.028849553 1.0660347e-21 -102.45194 80.992132 1.572707e-17 0 -961556.58 0 -102.45194 -961475.59 1.572707e-17
0.563335 -1.5687211 0 -5.525865 0 -0 -9.8091734 0 0 -9.81 0 1.204 -103.55387 80.991198 1.5772425e-17 -0.00085438834 0.028887167 1.0635405e-21 -103.55473 81.020085 1.5773489e-17 0 -961556.58 0 -103.55473 -961475.56 1.5773489e-17
0.565666 -1.5816507 0 -5.5487222 0 -0 -9.8091731 0 0 -9.81 0 1.204 -104.65455 81.01849 1.581884e-17 -0.00088536264 0.028924804 1.0593969e-21 -104.65543 81.047415 1.5819899e-17 0 -961556.58 0 -104.65543 -961475.53 1.5819899e-17
0.567984 -1.5945653 0 -5.5714598 0 -0 -9.8091728 0 0 -9.81 0 1.204 -105.75519 81.048429 1.5865825e-17 -0.00091601246 0.028962506 1.0533584e-21 -105.7561 81.077391 1.5866878e-17 0 -961556.58 0 -105.7561 -961475.5 1.5866878e-17
0.570291 -1.6074717 0 -5.594091 0 -0 -9.8091725 0 0 -9.81 0 1.204 -106.85358 81.078735 1.5912773e-17 -0.00094613282 0.029000292 1.0460175e-21 -106.85453 81.107735 1.5913819e-17 0 -961556.58 0 -106.85453 -961475.47 1.5913819e-17
0.572586 -1.6203628 0 -5.6166048 0 -0 -9.8091722 0 0 -9.81 0 1.204 -107.95011 81.108702 1.5959803e-17 -0.0009759152 0.029038574 1.0380189e-21 -107.95109 81.137741 1.5960841e-17 0 -961556.58 0 -107.95109 -961475.44 1.5960841e-17
0.574869 -1.6332386 0 -5.6390026 0 -0 -9.8091719 0 0 -9.81 0 1.204 -109.04806 81.143751 1.6008328e-17 -0.0010060588 0.029078171 1.0275762e-21 -109.04906 81.172829 1.6009355e-17 0 -961556.58 0 -109.04906 -961475.41 1.6009355e-17
0.577142 -1.6461056 0 -5.6612968 0 -0 -9.8091715 0 0 -9.81 0 1.204 -110.14522 81.175966 1.6053877e-17 -0.0010365637 0.02911819 1.0257894e-21 -110.14626 81.205084 1.6054903e-17 0 -961556.58 0 -110.14626 -961475.37 1.6054903e-17
0.579403 -1.6589569 0 -5.6834771 0 -0 -9.8091712 0 0 -9.81 0 1.204 -111.24099 81.205441 1.6097823e-17 -0.0010669489 0.029158092 1.0237203e-21 -111.24206 81.234599 1.6098846e-17 0 -961556.58 0 -111.24206 -961475.35 1.6098846e-17
0.581654 -1.6717991 0 -5.7055557 0 -0 -9.8091709 0 0 -9.81 0 1.204 -112.33478 81.238784 1.6143459e-17 -0.0010969294 0.029197462 1.0192418e-21 -112.33588 81.267982 1.6144479e-17 0 -961556.58 0 -112.33588 -961475.31 1.6144479e-17
0.583892 -1.6846188 0 -5.7275113 0 -0 -9.8091706 0 0 -9.81 0 1.204 -113.42329 81.271371 1.618927e-17 -0.0011264638 0.029236713 1.0151238e-21 -113.42442 81.300608 1.6190285e-17 0 -961556.58 0 -113.42442 -961475.28 1.6190285e-17
0.586104 -1.6973324 0 -5.749203 0 -0 -9.8091702 0 0 -9.81 0 1.204 -114.51153 81.307498 1.6235526e-17 -0.0011555287 0.029275741 1.0097403e-21 -114.51268 81.336774 1.6236536e-17 0 -961556.58 0 -114.51268 -961475.24 1.6236536e-17
0.588289 -1.7099418 0 -5.770637 0 -0 -9.8091697 0 0 -9.81 0 1.204 -115.60281 81.358968 1.628296e-17 -0.0011842649 0.029314212 9.9519733e-22 -115.604 81.388282 1.6283955e-17 0 -961556.58 0 -115.604 -961475.19 1.6283955e-17
0.59045 -1.7224611 0 -5.7918399 0 -0 -9.8091692 0 0 -9.81 0 1.204 -116.67482 81.402159 1.6327451e-17 -0.0012125233 0.029351814 9.8108855e-22 -116.67603 81.431511 1.6328432e-17 0 -961556.58 0 -116.67603 -961475.15 1.6328432e-17
0.592589 -1.7348917 0 -5.8128167 0 -0 -9.8091688 0 0 -9.81 0 1.204 -117.73394 81.438848 1.637156e-17 -0.0012406645 0.02938927 9.7007648e-22 -117.73518 81.468237 1.637253e-17 0 -961556.58 0 -117.73518 -961475.11 1.637253e-17
0.594706 -1.7472409 0 -5.8335818 0 -0 -9.8091684 0 0 -9.81 0 1.204 -118.77645 81.486701 1.6424037e-17 -0.0012687778 0.029427051 9.5608115e-22 -118.77771 81.516128 1.6424994e-17 0 -961556.58 0 -118.77771 -961475.06 1.6424994e-17
0.596802 -1.7595098 0 -5.8541395 0 -0 -9.8091679 0 0 -9.81 0 1.204 -119.80746 81.531438 1.6472687e-17 -0.0012967888 0.029464364 9.4352014e-22 -119.80876 81.560902 1.6473631e-17 0 -961556.58 0 -119.80876 -961475.02 1.6473631e-17
0.598878 -1.7717053 0 -5.8745033 0 -0 -9.8091674 0 0 -9.81 0 1.204 -120.82924 81.583614 1.6524522e-17 -0.001324674 0.029500433 9.2802136e-22 -120.83057 81.613114 1.652545e-17 0 -961556.58 0 -120.83057 -961474.97 1.652545e-17
0.600934 -1.7838283 0 -5.8946769 0 -0 -9.8091669 0 0 -9.81 0 1.204 -121.84204 81.632326 1.6573683e-17 -0.0013526523 0.029536667 9.0994322e-22 -121.84339 81.661863 1.6574593e-17 0 -961556.58 0 -121.84339 -961474.92 1.6574593e-17
0.602972 -1.7958797 0 -5.9146635 0 -0 -9.8091666 0 0 -9.81 0 1.204 -122.89367 81.65993 1.6610954e-17 -0.001379568 0.029572611 8.9727629e-22 -122.89505 81.689503 1.6611851e-17 0 -961556.58 0 -122.89505 -961474.89 1.6611851e-17
0.604992 -1.8078714 0 -5.9344848 0 -0 -9.8091665 0 0 -9.81 0 1.204 -123.95318 81.671455 1.6641003e-17 -0.0014052793 0.029608863 8.8759921e-22 -123.95458 81.701063 1.664189e-17 0 -961556.58 0 -123.95458 -961474.88 1.664189e-17
0.606996 -1.8197987 0 -5.9541345 0 -0 -9.8091662 0 0 -9.81 0 1.204 -124.969 81.6979 1.6680819e-17 -0.0014303534 0.02964535 8.7464637e-22 -124.97043 81.727546 1.6681693e-17 0 -961556.58 0 -124.97043 -961474.85 1.6681693e-17
0.608982 -1.8316676 0 -5.9736242 0 -0 -9.8091659 0 0 -9.81 0 1.204 -125.97696 81.731686 1.6722748e-17 -0.0014550008 0.029682144 8.6035421e-22 -125.97842 81.761368 1.6723609e-17 0 -961556.58 0 -125.97842 -961474.82 1.6723609e-17
0.610954 -1.8434841 0 -5.9929651 0 -0 -9.8091655 0 0 -9.81 0 1.204 -126.97695 81.766048 1.6765047e-17 -0.0014792338 0.029719249 8.463512e-22 -126.97843 81.795767 1.6765894e-17 0 -961556.58 0 -126.97843 -961474.78 1.6765894e-17
0.612911 -1.8552485 0 -6.0121594 0 -0 -9.8091652 0 0 -9.81 0 1.204 -127.97289 81.798691 1.6806156e-17 -0.0015032389 0.029757084 8.3326562e-22 -127.97439 81.828448 1.6806989e-17 0 -961556.58 0 -127.97439 -961474.75 1.6806989e-17
0.614853 -1.8669614 0 -6.0312093 0 -0 -9.8091648 0 0 -9.81 0 1.204 -128.96846 81.830364 1.6845343e-17 -0.0015272775 0.029795358 8.2088595e-22 -128.96999 81.860159 1.6846164e-17 0 -961556.58 0 -128.96999 -961474.72 1.6846164e-17
0.616781 -1.8786284 0 -6.0501251 0 -0 -9.8091644 0 0 -9.81 0 1.204 -129.94892 81.872088 1.6893607e-17 -0.0015513867 0.02983414 8.0482466e-22 -129.95047 81.901922 1.6894412e-17 0 -961556.58 0 -129.95047 -961474.68 1.6894412e-17
0.618696 -1.8902498 0 -6.0689088 0 -0 -9.8091641 0 0 -9.81 0 1.204 -130.92342 81.90661 1.6937975e-17 -0.0015755888 0.029872995 7.9063753e-22 -130.925 81.936483 1.6938766e-17 0 -961556.58 0 -130.925 -961474.64 1.6938766e-17
0.620598 -1.9018259 0 -6.0875619 0 -0 -9.8091638 0 0 -9.81 0 1.204 -131.89569 81.933843 1.6979472e-17 -0.0016000668 0.029912409 7.7735886e-22 -131.89729 81.963755 1.6980249e-17 0 -961556.58 0 -131.89729 -961474.62 1.6980249e-17
0.622487 -1.9133622 0 -6.1060944 0 -0 -9.8091634 0 0 -9.81 0 1.204 -132.87154 81.971694 1.7022e-17 -0.0016246945 0.029951671 7.6413625e-22 -132.87316 82.001646 1.7022765e-17 0 -961556.58 0 -132.87316 -961474.58 1.7022765e-17
0.624364 -1.9248539 0 -6.1244998 0 -0 -9.809163 0 0 -9.81 0 1.204 -133.84287 82.007405 1.7063474e-17 -0.0016496082 0.029991234 7.5172025e-22 -133.84452 82.037397 1.7064226e-17 0 -961556.58 0 -133.84452 -961474.54 1.7064226e-17
0.626229 -1.9363111 0 -6.1427953 0 -0 -9.8091627 0 0 -9.81 0 1.204 -134.81456 82.041188 1.7102782e-17 -0.0016746964 0.030030707 7.3938535e-22 -134.81623 82.071219 1.7103522e-17 0 -961556.58 0 -134.81623 -961474.51 1.7103522e-17
0.628082 -1.9477292 0 -6.1609746 0 -0 -9.8091624 0 0 -9.81 0 1.204 -135.78216 82.070118 1.714026e-17 -0.0016999731 0.030070294 7.3510713e-22 -135.78386 82.100188 1.7140995e-17 0 -961556.58 0 -135.78386 -961474.48 1.7140995e-17
0.629924 -1.9591132 0 -6.1790466 0 -0 -9.8091621 0 0 -9.81 0 1.204 -136.74687 82.103178 1.7179978e-17 -0.0017250796 0.030109828 7.3952447e-22 -136.7486 82.133288 1.7180718e-17 0 -961556.58 0 -136.7486 -961474.45 1.7180718e-17
0.631756 -1.9704633 0 -6.1970125 0 -0 -9.8091617 0 0 -9.81 0 1.204 -137.70468 82.13597 1.7220398e-17 -0.0017502737 0.03015002 7.4445331e-22 -137.70643 82.16612 1.7221143e-17 0 -961556.58 0 -137.70643 -961474.41 1.7221143e-17
0.633577 -1.9817798 0 -6.2148737 0 -0 -9.8091614 0 0 -9.81 0 1.204 -138.66103 82.167553 1.7259211e-17 -0.0017756924 0.030190181 7.4948274e-22 -138.6628 82.197743 1.725996e-17 0 -961556.58 0 -138.6628 -961474.38 1.725996e-17
0.635388 -1.9930673 0 -6.2326385 0 -0 -9.8091611 0 0 -9.81 0 1.204 -139.61679 82.197945 1.7296125e-17 -0.0018013623 0.030230206 7.5465536e-22 -139.6186 82.228175 1.729688e-17 0 -961556.58 0 -139.6186 -961474.35 1.729688e-17
0.637188 -2.0043215 0 -6.2503007 0 -0 -9.8091607 0 0 -9.81 0 1.204 -140.56492 82.233087 1.7337493e-17 -0.0018271632 0.03026961 7.5912086e-22 -140.56675 82.263357 1.7338252e-17 0 -961556.58 0 -140.56675 -961474.32 1.7338252e-17
0.638979 -2.0155471 0 -6.2678686 0 -0 -9.8091604 0 0 -9.81 0 1.204 -141.50881 82.269262 1.7379401e-17 -0.0018531724 0.030308849 7.5883402e-22 -141.51066 82.299571 1.7380159e-17 0 -961556.58 0 -141.51066 -961474.28 1.7380159e-17
0.640762 -2.0267488 0 -6.2853504 0 -0 -9.80916 0 0 -9.81 0 1.204 -142.44726 82.30262 1.7420794e-17 -0.0018797321 0.030348173 7.610652e-22 -142.44914 82.332969 1.7421555e-17 0 -961556.58 0 -142.44914 -961474.25 1.7421555e-17
0.642534 -2.0379221 0 -6.3027398 0 -0 -9.8091597 0 0 -9.81 0 1.204 -143.38117 82.336167 1.7462321e-17 -0.0019063649 0.03038754 7.6256837e-22 -143.38308 82.366555 1.7463084e-17 0 -961556.58 0 -143.38308 -961474.21 1.7463084e-17
0.644298 -2.0490716 0 -6.3200447 0 -0 -9.8091593 0 0 -9.81 0 1.204 -144.31664 82.37255 1.750423e-17 -0.0019331081 0.030427031 7.629299e-22 -144.31857 82.402977 1.7504993e-17 0 -961556.58 0 -144.31857 -961474.18 1.7504993e-17
0.646055 -2.060202 0 -6.3372728 0 -0 -9.8091589 0 0 -9.81 0 1.204 -145.24907 82.408897 1.7546243e-17 -0.0019599857 0.030466675 7.6385465e-22 -145.25103 82.439364 1.7547007e-17 0 -961556.58 0 -145.25103 -961474.14 1.7547007e-17
0.647803 -2.0713087 0 -6.3544179 0 -0 -9.8091586 0 0 -9.81 0 1.204 -146.17927 82.445189 1.7588328e-17 -0.0019870926 0.030506451 7.6536078e-22 -146.18125 82.475696 1.7589093e-17 0 -961556.58 0 -146.18125 -961474.1 1.7589093e-17
0.649543 -2.0823962 0 -6.3714877 0 -0 -9.8091582 0 0 -9.81 0 1.204 -147.10957 82.483316 1.7630572e-17 -0.0020144706 0.030546318 7.6640178e-22 -147.11158 82.513862 1.7631338e-17 0 -961556.58 0 -147.11158 -961474.07 1.7631338e-17
0.651276 -2.0934691 0 -6.3884894 0 -0 -9.8091577 0 0 -9.81 0 1.204 -148.03154 82.532287 1.7679782e-17 -0.0020420395 0.030586304 7.6632499e-22 -148.03358 82.562873 1.7680548e-17 0 -961556.58 0 -148.03358 -961474.02 1.7680548e-17
0.653002 -2.1045228 0 -6.4054169 0 -0 -9.8091572 0 0 -9.81 0 1.204 -148.95113 82.578864 1.7727918e-17 -0.0020696584 0.030626474 7.6686406e-22 -148.9532 82.609491 1.7728685e-17 0 -961556.58 0 -148.9532 -961473.97 1.7728685e-17
0.654721 -2.1155618 0 -6.4222775 0 -0 -9.8091567 0 0 -9.81 0 1.204 -149.86928 82.62412 1.7775538e-17 -0.0020973074 0.030666482 7.6712125e-22 -149.87138 82.654786 1.7776305e-17 0 -961556.58 0 -149.87138 -961473.93 1.7776305e-17
0.656433 -2.1265861 0 -6.4390716 0 -0 -9.8091563 0 0 -9.81 0 1.204 -150.77981 82.671846 1.7826376e-17 -0.0021249527 0.030706128 7.6724294e-22 -150.78193 82.702552 1.7827144e-17 0 -961556.58 0 -150.78193 -961473.88 1.7827144e-17
0.658138 -2.1375956 0 -6.4557998 0 -0 -9.8091558 0 0 -9.81 0 1.204 -151.69351 82.717933 1.7874839e-17 -0.0021526068 0.030745579 7.6793681e-22 -151.69566 82.748678 1.7875607e-17 0 -961556.58 0 -151.69566 -961473.83 1.7875607e-17
0.659837 -2.1485946 0 -6.4724691 0 -0 -9.8091555 0 0 -9.81 0 1.204 -152.63181 82.749768 1.7906295e-17 -0.0021803178 0.030784546 7.7271397e-22 -152.63399 82.780553 1.7907068e-17 0 -961556.58 0 -152.63399 -961473.8 1.7907068e-17
0.66153 -2.1595789 0 -6.4890733 0 -0 -9.8091552 0 0 -9.81 0 1.204 -153.56291 82.776557 1.7939137e-17 -0.0022081192 0.030823101 7.7793507e-22 -153.56511 82.80738 1.7939915e-17 0 -961556.58 0 -153.56511 -961473.77 1.7939915e-17
0.663216 -2.1705483 0 -6.5056131 0 -0 -9.8091548 0 0 -9.81 0 1.204 -154.48742 82.814308 1.7978103e-17 -0.0022359843 0.030861782 7.8106223e-22 -154.48966 82.84517 1.7978884e-17 0 -961556.58 0 -154.48966 -961473.73 1.7978884e-17
0.664897 -2.1815072 0 -6.5220951 0 -0 -9.8091545 0 0 -9.81 0 1.204 -155.41042 82.844909 1.8013086e-17 -0.0022638807 0.030900301 7.8521439e-22 -155.41269 82.875809 1.8013871e-17 0 -961556.58 0 -155.41269 -961473.7 1.8013871e-17
0.666571 -2.1924555 0 -6.5385199 0 -0 -9.809154 0 0 -9.81 0 1.204 -156.32412 82.888067 1.8056035e-17 -0.0022918161 0.030939068 7.8764343e-22 -156.32641 82.919006 1.8056823e-17 0 -961556.58 0 -156.32641 -961473.66 1.8056823e-17
0.66824 -2.2033932 0 -6.5548877 0 -0 -9.8091536 0 0 -9.81 0 1.204 -157.23329 82.932145 1.8100009e-17 -0.0023197535 0.030977723 7.8982178e-22 -157.23561 82.963122 1.8100799e-17 0 -961556.58 0 -157.23561 -961473.62 1.8100799e-17
0.669903 -2.2143202 0 -6.571199 0 -0 -9.8091531 0 0 -9.81 0 1.204 -158.1405 82.977046 1.8144154e-17 -0.0023476875 0.031016244 7.920131e-22 -158.14285 83.008062 1.8144946e-17 0 -961556.58 0 -158.14285 -961473.57 1.8144946e-17
0.67156 -2.2252365 0 -6.5874541 0 -0 -9.8091527 0 0 -9.81 0 1.204 -159.04679 83.023098 1.8188632e-17 -0.0023756331 0.031054652 7.9426748e-22 -159.04916 83.054153 1.8189427e-17 0 -961556.58 0 -159.04916 -961473.53 1.8189427e-17
0.673211 -2.2361421 0 -6.6036534 0 -0 -9.8091522 0 0 -9.81 0 1.204 -159.95198 83.069832 1.823332e-17 -0.0024035981 0.031092947 7.9655704e-22 -159.95438 83.100925 1.8234117e-17 0 -961556.58 0 -159.95438 -961473.48 1.8234117e-17
0.674857 -2.2470369 0 -6.6197972 0 -0 -9.8091517 0 0 -9.81 0 1.204 -160.85565 83.117423 1.8278247e-17 -0.0024315958 0.031131179 7.9885135e-22 -160.85808 83.148554 1.8279046e-17 0 -961556.58 0 -160.85808 -961473.43 1.8279046e-17
0.676498 -2.2579251 0 -6.6358921 0 -0 -9.8091512 0 0 -9.81 0 1.204 -161.75748 83.16594 1.8323324e-17 -0.0024596264 0.031169447 8.0117083e-22 -161.75994 83.197109 1.8324125e-17 0 -961556.58 0 -161.75994 -961473.38 1.8324125e-17
0.678134 -2.2688065 0 -6.6519382 0 -0 -9.8091507 0 0 -9.81 0 1.204 -162.65566 83.215478 1.8369188e-17 -0.0024876433 0.031207758 8.0407625e-22 -162.65815 83.246686 1.8369992e-17 0 -961556.58 0 -162.65815 -961473.33 1.8369992e-17
0.679764 -2.2796812 0 -6.6679359 0 -0 -9.8091502 0 0 -9.81 0 1.204 -163.55091 83.26837 1.8415971e-17 -0.0025157552 0.031246165 8.0682444e-22 -163.55343 83.299616 1.8416778e-17 0 -961556.58 0 -163.55343 -961473.28 1.8416778e-17
0.68139 -2.2905491 0 -6.6838854 0 -0 -9.8091496 0 0 -9.81 0 1.204 -164.43821 83.327018 1.8464033e-17 -0.0025440493 0.031284634 8.0910471e-22 -164.44076 83.358303 1.8464842e-17 0 -961556.58 0 -164.44076 -961473.22 1.8464842e-17
0.683012 -2.3014101 0 -6.699787 0 -0 -9.8091489 0 0 -9.81 0 1.204 -165.32438 83.387639 1.8512333e-17 -0.0025725657 0.03132283 8.1139916e-22 -165.32695 83.418961 1.8513145e-17 0 -961556.58 0 -165.32695 -961473.16 1.8513145e-17
0.684628 -2.3122683 0 -6.7156469 0 -0 -9.8091488 0 0 -9.81 0 1.204 -166.27574 83.406141 1.8549585e-17 -0.0026009645 0.031361145 8.1937662e-22 -166.27834 83.437502 1.8550405e-17 0 -961556.58 0 -166.27834 -961473.14 1.8550405e-17
0.68624 -2.3231195 0 -6.7314594 0 -0 -9.8091485 0 0 -9.81 0 1.204 -167.20427 83.430556 1.8589027e-17 -0.0026292341 0.031399784 8.2569905e-22 -167.2069 83.461956 1.8589852e-17 0 -961556.58 0 -167.2069 -961473.12 1.8589852e-17
0.687848 -2.3339678 0 -6.7472307 0 -0 -9.8091483 0 0 -9.81 0 1.204 -168.15067 83.445942 1.8627114e-17 -0.0026574987 0.031438736 8.3220481e-22 -168.15332 83.477381 1.8627946e-17 0 -961556.58 0 -168.15332 -961473.1 1.8627946e-17
0.689452 -2.3448131 0 -6.7629609 0 -0 -9.8091482 0 0 -9.81 0 1.204 -169.04196 83.46415 1.8672505e-17 -0.0026857888 0.031478156 8.3409677e-22 -169.04465 83.495629 1.8673339e-17 0 -961556.58 0 -169.04465 -961473.08 1.8673339e-17
0.691052 -2.3556593 0 -6.7786561 0 -0 -9.8091476 0 0 -9.81 0 1.204 -169.93602 83.520643 1.8721835e-17 -0.0027140702 0.03151802 8.3670417e-22 -169.93873 83.552161 1.8722672e-17 0 -961556.58 0 -169.93873 -961473.03 1.8722672e-17
0.692648 -2.3665024 0 -6.7943105 0 -0 -9.8091471 0 0 -9.81 0 1.204 -170.82969 83.572373 1.8770002e-17 -0.0027424344 0.031558306 8.4017051e-22 -170.83244 83.603931 1.8770842e-17 0 -961556.58 0 -170.83244 -961472.98 1.8770842e-17
0.69424 -2.3773463 0 -6.8099303 0 -0 -9.8091465 0 0 -9.81 0 1.204 -171.72661 83.62428 1.8817802e-17 -0.002771129 0.031598784 8.4326919e-22 -171.72938 83.655879 1.8818645e-17 0 -961556.58 0 -171.72938 -961472.92 1.8818645e-17
0.695828 -2.3881869 0 -6.8255097 0 -0 -9.809146 0 0 -9.81 0 1.204 -172.61895 83.678299 1.8868056e-17 -0.0027999982 0.031639497 8.4631549e-22 -172.62175 83.709938 1.8868902e-17 0 -961556.58 0 -172.62175 -961472.87 1.8868902e-17
0.697413 -2.3990283 0 -6.8410547 0 -0 -9.8091454 0 0 -9.81 0 1.204 -173.51184 83.734104 1.8919105e-17 -0.0028290465 0.031680454 8.4868942e-22 -173.51467 83.765785 1.8919954e-17 0 -961556.58 0 -173.51467 -961472.81 1.8919954e-17
0.698995 -2.4098742 0 -6.8565712 0 -0 -9.8091449 0 0 -9.81 0 1.204 -174.40669 83.782305 1.8965908e-17 -0.0028582704 0.031721498 8.523634e-22 -174.40955 83.814027 1.896676e-17 0 -961556.58 0 -174.40955 -961472.77 1.896676e-17
0.700573 -2.4207207 0 -6.8720534 0 -0 -9.8091444 0 0 -9.81 0 1.204 -175.30092 83.83366 1.9014866e-17 -0.0028876694 0.03176256 8.5611874e-22 -175.3038 83.865423 1.9015722e-17 0 -961556.58 0 -175.3038 -961472.71 1.9015722e-17
0.702149 -2.4315717 0 -6.8875073 0 -0 -9.8091439 0 0 -9.81 0 1.204 -176.19695 83.884612 1.9063065e-17 -0.0029172719 0.0318037 8.5951486e-22 -176.19986 83.916415 1.9063924e-17 0 -961556.58 0 -176.19986 -961472.66 1.9063924e-17
0.703721 -2.4424231 0 -6.9029273 0 -0 -9.8091433 0 0 -9.81 0 1.204 -177.09068 83.935881 1.911207e-17 -0.0029470814 0.031844932 8.631954e-22 -177.09362 83.967726 1.9112933e-17 0 -961556.58 0 -177.09362 -961472.61 1.9112933e-17
0.70529 -2.4532789 0 -6.9183192 0 -0 -9.8091428 0 0 -9.81 0 1.204 -177.98594 83.988329 1.9161251e-17 -0.0029771402 0.031886293 8.6634467e-22 -177.98891 84.020216 1.9162117e-17 0 -961556.58 0 -177.98891 -961472.56 1.9162117e-17
0.706856 -2.4641389 0 -6.9336829 0 -0 -9.8091422 0 0 -9.81 0 1.204 -178.88223 84.046784 1.9213313e-17 -0.0030075531 0.031927726 8.6925505e-22 -178.88524 84.078712 1.9214182e-17 0 -961556.58 0 -178.88524 -961472.5 1.9214182e-17
0.70842 -2.4750071 0 -6.9490243 0 -0 -9.8091417 0 0 -9.81 0 1.204 -179.77338 84.101613 1.9264568e-17 -0.0030383106 0.031969353 8.722768e-22 -179.77642 84.133583 1.926544e-17 0 -961556.58 0 -179.77642 -961472.45 1.926544e-17
0.709981 -2.4858794 0 -6.9643377 0 -0 -9.8091411 0 0 -9.81 0 1.204 -180.66385 84.155133 1.9315836e-17 -0.0030693907 0.032011116 8.7584112e-22 -180.66692 84.187144 1.9316712e-17 0 -961556.58 0 -180.66692 -961472.39 1.9316712e-17
0.71154 -2.4967598 0 -6.9796289 0 -0 -9.8091407 0 0 -9.81 0 1.204 -181.56383 84.199021 1.9363074e-17 -0.0031007958 0.032052975 8.8001669e-22 -181.56693 84.231074 1.9363954e-17 0 -961556.58 0 -181.56693 -961472.35 1.9363954e-17
0.713097 -2.5076481 0 -6.9948979 0 -0 -9.8091401 0 0 -9.81 0 1.204 -182.45372 84.252911 1.9416136e-17 -0.0031324598 0.032094888 8.8304632e-22 -182.45686 84.285006 1.9417019e-17 0 -961556.58 0 -182.45686 -961472.29 1.9417019e-17
0.714651 -2.5185443 0 -7.0101448 0 -0 -9.8091395 0 0 -9.81 0 1.204 -183.33673 84.31639 1.9474976e-17 -0.0031643477 0.032136857 8.8465118e-22 -183.33989 84.348527 1.9475861e-17 0 -961556.58 0 -183.33989 -961472.23 1.9475861e-17
0.716203 -2.5294484 0 -7.0253696 0 -0 -9.8091387 0 0 -9.81 0 1.204 -184.21106 84.38765 1.9538914e-17 -0.0031964191 0.03217872 8.8508187e-22 -184.21425 84.419829 1.9539799e-17 0 -961556.58 0 -184.21425 -961472.16 1.9539799e-17
0.717753 -2.5403603 0 -7.0405723 0 -0 -9.8091381 0 0 -9.81 0 1.204 -185.096 84.447013 1.9595077e-17 -0.0032288155 0.0322205 8.8725109e-22 -185.09923 84.479234 1.9595964e-17 0 -961556.58 0 -185.09923 -961472.1 1.9595964e-17
0.7193 -2.5512759 0 -7.0557476 0 -0 -9.8091376 0 0 -9.81 0 1.204 -186.01884 84.502876 1.9644277e-17 -0.0032615981 0.032261875 8.9140903e-22 -186.0221 84.535138 1.9645168e-17 0 -961556.58 0 -186.0221 -961472.04 1.9645168e-17
0.720846 -2.5622031 0 -7.0709064 0 -0 -9.8091373 0 0 -9.81 0 1.204 -186.97138 84.524337 1.9673437e-17 -0.0032948091 0.032302688 8.9996407e-22 -186.97468 84.55664 1.9674337e-17 0 -961556.58 0 -186.97468 -961472.02 1.9674337e-17
0.722389 -2.5731379 0 -7.0860434 0 -0 -9.8091369 0 0 -9.81 0 1.204 -187.87227 84.565471 1.9721967e-17 -0.003328462 0.032343572 9.0476898e-22 -187.8756 84.597815 1.9722871e-17 0 -961556.58 0 -187.8756 -961471.98 1.9722871e-17
0.72393 -2.5840843 0 -7.101164 0 -0 -9.8091365 0 0 -9.81 0 1.204 -188.77679 84.605142 1.9765306e-17 -0.0033624897 0.032384173 9.1024108e-22 -188.78015 84.637526 1.9766216e-17 0 -961556.58 0 -188.78015 -961471.94 1.9766216e-17
0.725469 -2.595038 0 -7.1162628 0 -0 -9.8091359 0 0 -9.81 0 1.204 -189.67193 84.66122 1.9817618e-17 -0.0033969204 0.032424865 9.1415918e-22 -189.67532 84.693645 1.9818532e-17 0 -961556.58 0 -189.67532 -961471.89 1.9818532e-17
0.727007 -2.6060032 0 -7.1313453 0 -0 -9.8091353 0 0 -9.81 0 1.204 -190.57078 84.720154 1.9871033e-17 -0.0034317479 0.032465277 9.1761057e-22 -190.57421 84.752619 1.987195e-17 0 -961556.58 0 -190.57421 -961471.83 1.987195e-17
0.728543 -2.6169797 0 -7.1464116 0 -0 -9.8091348 0 0 -9.81 0 1.204 -191.46452 84.776828 1.9924668e-17 -0.0034668572 0.032505544 9.2097271e-22 -191.46798 84.809334 1.9925589e-17 0 -961556.58 0 -191.46798 -961471.77 1.9925589e-17
0.730077 -2.6279674 0 -7.1614617 0 -0 -9.8091342 0 0 -9.81 0 1.204 -192.36078 84.833287 1.9978154e-17 -0.0035020781 0.032545772 9.2304165e-22 -192.36429 84.865833 1.9979077e-17 0 -961556.58 0 -192.36429 -961471.71 1.9979077e-17
0.73161 -2.6389703 0 -7.1765009 0 -0 -9.8091336 0 0 -9.81 0 1.204 -193.25762 84.889837 2.0031606e-17 -0.0035376615 0.032586186 9.2516641e-22 -193.26116 84.922423 2.0032531e-17 0 -961556.58 0 -193.26116 -961471.66 2.0032531e-17
0.733143 -2.6499923 0 -7.1915347 0 -0 -9.809133 0 0 -9.81 0 1.204 -194.15989 84.953849 2.0088681e-17 -0.0035738701 0.032629922 9.2696101e-22 -194.16347 84.986479 2.0089608e-17 0 -961556.58 0 -194.16347 -961471.59 2.0089608e-17
0.734676 -2.6610374 0 -7.2065685 0 -0 -9.8091323 0 0 -9.81 0 1.204 -195.06024 85.016556 2.0145877e-17 -0.0036109815 0.032675235 9.2955103e-22 -195.06385 85.049231 2.0146806e-17 0 -961556.58 0 -195.06385 -961471.53 2.0146806e-17
0.736208 -2.6721055 0 -7.2216023 0 -0 -9.8091317 0 0 -9.81 0 1.204 -195.9577 85.078481 2.0203671e-17 -0.0036489971 0.032721554 9.3248373e-22 -195.96135 85.111203 2.0204603e-17 0 -961556.58 0 -195.96135 -961471.47 2.0204603e-17
0.737742 -2.6832006 0 -7.2366416 0 -0 -9.809131 0 0 -9.81 0 1.204 -196.85302 85.144395 2.0265066e-17 -0.003687879 0.032768535 9.3465073e-22 -196.85671 85.177163 2.0266e-17 0 -961556.58 0 -196.85671 -961471.4 2.0266e-17
0.739275 -2.6943228 0 -7.2516862 0 -0 -9.8091305 0 0 -9.81 0 1.204 -197.76558 85.197613 2.0314468e-17 -0.0037276139 0.032815766 9.4067451e-22 -197.76931 85.230429 2.0315409e-17 0 -961556.58 0 -197.76931 -961471.35 2.0315409e-17
0.74081 -2.7054761 0 -7.2667417 0 -0 -9.8091299 0 0 -9.81 0 1.204 -198.68183 85.253724 2.036516e-17 -0.0037682648 0.03286358 9.4641947e-22 -198.6856 85.286587 2.0366106e-17 0 -961556.58 0 -198.6856 -961471.29 2.0366106e-17
0.742346 -2.7166565 0 -7.2818026 0 -0 -9.8091294 0 0 -9.81 0 1.204 -199.60408 85.306173 2.0411795e-17 -0.0038098508 0.03291199 9.5388193e-22 -199.60789 85.339085 2.0412748e-17 0 -961556.58 0 -199.60789 -961471.24 2.0412748e-17
0.743882 -2.7278682 0 -7.2968744 0 -0 -9.8091287 0 0 -9.81 0 1.204 -200.51438 85.37363 2.0470576e-17 -0.0038524195 0.03296151 9.5764119e-22 -200.51823 85.406592 2.0471533e-17 0 -961556.58 0 -200.51823 -961471.17 2.0471533e-17
0.745419 -2.7391071 0 -7.3119516 0 -0 -9.8091279 0 0 -9.81 0 1.204 -201.41749 85.445613 2.0533741e-17 -0.0038959114 0.03301187 9.6096417e-22 -201.42139 85.478625 2.0534702e-17 0 -961556.58 0 -201.42139 -961471.1 2.0534702e-17
0.746957 -2.7503774 0 -7.3270397 0 -0 -9.8091272 0 0 -9.81 0 1.204 -202.32834 85.518001 2.0595448e-17 -0.0039403014 0.033062801 9.642968e-22 -202.33228 85.551064 2.0596412e-17 0 -961556.58 0 -202.33228 -961471.03 2.0596412e-17
0.748496 -2.7616749 0 -7.3421333 0 -0 -9.8091265 0 0 -9.81 0 1.204 -203.24022 85.587716 2.0655742e-17 -0.0039855677 0.033114139 9.6858556e-22 -203.24421 85.620831 2.065671e-17 0 -961556.58 0 -203.24421 -961470.96 2.065671e-17
0.750036 -2.7730039 0 -7.3572378 0 -0 -9.8091258 0 0 -9.81 0 1.204 -204.15754 85.657863 2.0715242e-17 -0.0040317009 0.033165779 9.7269149e-22 -204.16157 85.691029 2.0716215e-17 0 -961556.58 0 -204.16157 -961470.89 2.0716215e-17
0.751576 -2.7843603 0 -7.3723477 0 -0 -9.809125 0 0 -9.81 0 1.204 -205.07446 85.727647 2.0774833e-17 -0.0040786899 0.033217656 9.7737192e-22 -205.07854 85.760864 2.077581e-17 0 -961556.58 0 -205.07854 -961470.82 2.077581e-17
0.753118 -2.7957482 0 -7.3874687 0 -0 -9.8091243 0 0 -9.81 0 1.204 -205.99208 85.805951 2.0837617e-17 -0.0041265502 0.033269826 9.8092111e-22 -205.9962 85.839221 2.0838597e-17 0 -961556.58 0 -205.9962 -961470.74 2.0838597e-17
0.754655 -2.8071263 0 -7.4025458 0 -0 -9.8091234 0 0 -9.81 0 1.204 -206.90571 85.886125 2.0901967e-17 -0.0041752694 0.033322291 9.8457182e-22 -206.90989 85.919447 2.0902951e-17 0 -961556.58 0 -206.90989 -961470.66 2.0902951e-17
0.756186 -2.8184864 0 -7.4175686 0 -0 -9.8091227 0 0 -9.81 0 1.204 -207.8284 85.959485 2.0961053e-17 -0.0042249359 0.03337529 9.8392056e-22 -207.83262 85.992861 2.0962037e-17 0 -961556.58 0 -207.83262 -961470.59 2.0962037e-17
0.757712 -2.8298284 0 -7.4325374 0 -0 -9.8091219 0 0 -9.81 0 1.204 -208.75233 86.032379 2.1018826e-17 -0.0042755504 0.03342845 9.8221918e-22 -208.7566 86.065808 2.1019808e-17 0 -961556.58 0 -208.7566 -961470.51 2.1019808e-17
0.759233 -2.8411566 0 -7.4474578 0 -0 -9.8091212 0 0 -9.81 0 1.204 -209.672 86.105456 2.1076974e-17 -0.0043270828 0.033481613 9.8012574e-22 -209.67633 86.138938 2.1077954e-17 0 -961556.58 0 -209.67633 -961470.44 2.1077954e-17
0.760749 -2.8524668 0 -7.4623249 0 -0 -9.8091204 0 0 -9.81 0 1.204 -210.58563 86.17936 2.1136423e-17 -0.0043794922 0.033534655 9.7805337e-22 -210.59001 86.212895 2.1137401e-17 0 -961556.58 0 -210.59001 -961470.37 2.1137401e-17
0.762259 -2.8637591 0 -7.4771391 0 -0 -9.8091194 0 0 -9.81 0 1.204 -211.51647 86.283522 2.1206986e-17 -0.0044328323 0.033587498 9.727744e-22 -211.52091 86.31711 2.1207959e-17 0 -961556.58 0 -211.52091 -961470.26 2.1207959e-17
0.763765 -2.8750375 0 -7.4919059 0 -0 -9.8091185 0 0 -9.81 0 1.204 -212.42618 86.370945 2.1272792e-17 -0.0044870772 0.033640094 9.6777051e-22 -212.43066 86.404585 2.127376e-17 0 -961556.58 0 -212.43066 -961470.18 2.127376e-17
0.765265 -2.8862981 0 -7.5066204 0 -0 -9.8091177 0 0 -9.81 0 1.204 -213.3255 86.450153 2.1336184e-17 -0.0045421034 0.033692486 9.6361504e-22 -213.33005 86.483845 2.1337148e-17 0 -961556.58 0 -213.33005 -961470.1 2.1337148e-17
0.76676 -2.8975408 0 -7.5212829 0 -0 -9.809117 0 0 -9.81 0 1.204 -214.20888 86.516875 2.1396169e-17 -0.0045979504 0.033745312 9.5919278e-22 -214.21348 86.550621 2.1397129e-17 0 -961556.58 0 -214.21348 -961470.03 2.1397129e-17
0.768249 -2.9087658 0 -7.5358939 0 -0 -9.8091163 0 0 -9.81 0 1.204 -215.09236 86.583573 2.1455253e-17 -0.004654693 0.033798592 9.5517333e-22 -215.09702 86.617372 2.1456209e-17 0 -961556.58 0 -215.09702 -961469.96 2.1456209e-17
0.769734 -2.9199769 0 -7.5504587 0 -0 -9.8091155 0 0 -9.81 0 1.204 -215.98259 86.667482 2.1523074e-17 -0.0047123672 0.033851878 9.498385e-22 -215.9873 86.701334 2.1524024e-17 0 -961556.58 0 -215.9873 -961469.88 2.1524024e-17
0.771214 -2.9311702 0 -7.5649726 0 -0 -9.8091146 0 0 -9.81 0 1.204 -216.85348 86.750664 2.1596046e-17 -0.0047707661 0.033904618 9.4353248e-22 -216.85825 86.784569 2.1596989e-17 0 -961556.58 0 -216.85825 -961469.8 2.1596989e-17
0.772688 -2.9423459 0 -7.5794358 0 -0 -9.8091137 0 0 -9.81 0 1.204 -217.72956 86.843657 2.1671436e-17 -0.004829828 0.033956787 9.3608737e-22 -217.73439 86.877613 2.1672372e-17 0 -961556.58 0 -217.73439 -961469.7 2.1672372e-17
0.774157 -2.9535 0 -7.5938438 0 -0 -9.8091128 0 0 -9.81 0 1.204 -218.5975 86.930625 2.1742564e-17 -0.004889715 0.034009424 9.2960224e-22 -218.60239 86.964635 2.1743494e-17 0 -961556.58 0 -218.60239 -961469.62 2.1743494e-17
0.775621 -2.9646365 0 -7.6082019 0 -0 -9.8091122 0 0 -9.81 0 1.204 -219.52049 86.982251 2.1785179e-17 -0.0049503809 0.034061126 9.2957879e-22 -219.52544 87.016312 2.1786109e-17 0 -961556.58 0 -219.52544 -961469.56 2.1786109e-17
0.777079 -2.9757554 0 -7.6225104 0 -0 -9.8091117 0 0 -9.81 0 1.204 -220.43169 87.032178 2.1828795e-17 -0.005011955 0.034112843 9.2971343e-22 -220.43671 87.06629 2.1829724e-17 0 -961556.58 0 -220.43671 -961469.51 2.1829724e-17
0.778533 -2.9868568 0 -7.6367696 0 -0 -9.809111 0 0 -9.81 0 1.204 -221.32707 87.104903 2.188619e-17 -0.0050744039 0.034164563 9.2659764e-22 -221.33215 87.139068 2.1887117e-17 0 -961556.58 0 -221.33215 -961469.44 2.1887117e-17
0.779982 -2.9979407 0 -7.6509799 0 -0 -9.8091102 0 0 -9.81 0 1.204 -222.20482 87.182534 2.1947503e-17 -0.0051376744 0.034216328 9.2230447e-22 -222.20996 87.21675 2.1948425e-17 0 -961556.58 0 -222.20996 -961469.36 2.1948425e-17
0.781425 -3.009007 0 -7.6651416 0 -0 -9.8091093 0 0 -9.81 0 1.204 -223.07054 87.273206 2.2015392e-17 -0.0052017054 0.034268048 9.1634145e-22 -223.07574 87.307474 2.2016308e-17 0 -961556.58 0 -223.07574 -961469.27 2.2016308e-17
0.782864 -3.020056 0 -7.679255 0 -0 -9.8091082 0 0 -9.81 0 1.204 -223.88033 87.378963 2.2106049e-17 -0.005266431 0.034320698 9.0464123e-22 -223.88559 87.413283 2.2106953e-17 0 -961556.58 0 -223.88559 -961469.17 2.2106953e-17
0.784298 -3.0310875 0 -7.6933204 0 -0 -9.8091075 0 0 -9.81 0 1.204 -224.80038 87.449716 2.2165206e-17 -0.0053320115 0.034374999 9.0230593e-22 -224.80572 87.484091 2.2166108e-17 0 -961556.58 0 -224.80572 -961469.1 2.2166108e-17
0.785727 -3.0421017 0 -7.7073381 0 -0 -9.8091071 0 0 -9.81 0 1.204 -225.73654 87.487077 2.2207856e-17 -0.0053982296 0.034428405 9.0346886e-22 -225.74194 87.521506 2.2208759e-17 0 -961556.58 0 -225.74194 -961469.06 2.2208759e-17
0.787151 -3.0530986 0 -7.7213085 0 -0 -9.8091065 0 0 -9.81 0 1.204 -226.66706 87.542345 2.2264845e-17 -0.0054650639 0.03448173 9.0188693e-22 -226.67253 87.576826 2.2265747e-17 0 -961556.58 0 -226.67253 -961469 2.2265747e-17
0.788571 -3.0640781 0 -7.7352317 0 -0 -9.8091058 0 0 -9.81 0 1.204 -227.53584 87.612071 2.2329519e-17 -0.0055324013 0.034534956 8.979844e-22 -227.54137 87.646606 2.2330417e-17 0 -961556.58 0 -227.54137 -961468.93 2.2330417e-17
0.789985 -3.0750368 0 -7.7491036 0 -0 -9.8091048 0 0 -9.81 0 1.204 -228.40067 87.711426 2.2400513e-17 -0.0056000874 0.034587564 8.9486648e-22 -228.40627 87.746014 2.2401408e-17 0 -961556.58 0 -228.40627 -961468.83 2.2401408e-17
0.791394 -3.0859782 0 -7.762929 0 -0 -9.8091039 0 0 -9.81 0 1.204 -229.27012 87.801331 2.2467588e-17 -0.0056680276 0.034639014 8.921359e-22 -229.27579 87.83597 2.246848e-17 0 -961556.58 0 -229.27579 -961468.74 2.246848e-17
0.792799 -3.0969025 0 -7.7767082 0 -0 -9.8091029 0 0 -9.81 0 1.204 -230.1251 87.896533 2.2537978e-17 -0.0057361489 0.034689829 8.8919305e-22 -230.13083 87.931222 2.2538868e-17 0 -961556.58 0 -230.13083 -961468.65 2.2538868e-17
0.794199 -3.1078096 0 -7.7904416 0 -0 -9.8091016 0 0 -9.81 0 1.204 -230.99377 88.023594 2.262031e-17 -0.0058044412 0.034740303 8.8448877e-22 -230.99957 88.058334 2.2621194e-17 0 -961556.58 0 -230.99957 -961468.52 2.2621194e-17
0.795595 -3.1186997 0 -7.8041295 0 -0 -9.8091001 0 0 -9.81 0 1.204 -231.85539 88.171809 2.2710415e-17 -0.0058728375 0.034790352 8.7837966e-22 -231.86126 88.206599 2.2711293e-17 0 -961556.58 0 -231.86126 -961468.37 2.2711293e-17
0.796985 -3.1295727 0 -7.817772 0 -0 -9.8090991 0 0 -9.81 0 1.204 -232.70371 88.270039 2.2779177e-17 -0.0059412826 0.034839786 8.7651688e-22 -232.70965 88.304879 2.2780054e-17 0 -961556.58 0 -232.70965 -961468.28 2.2780054e-17
0.798372 -3.1404322 0 -7.8313741 0 -0 -9.8090987 0 0 -9.81 0 1.204 -233.62148 88.312711 2.2845529e-17 -0.0060097269 0.034888965 8.7540719e-22 -233.62749 88.3476 2.2846404e-17 0 -961556.58 0 -233.62749 -961468.23 2.2846404e-17
0.799754 -3.1512748 0 -7.8449314 0 -0 -9.8090979 0 0 -9.81 0 1.204 -234.48082 88.389632 2.2920521e-17 -0.0060780959 0.034938001 8.7293916e-22 -234.4869 88.42457 2.2921394e-17 0 -961556.58 0 -234.4869 -961468.16 2.2921394e-17
0.801132 -3.1621005 0 -7.8584442 0 -0 -9.8090974 0 0 -9.81 0 1.204 -235.32718 88.439969 2.2985451e-17 -0.0061463918 0.034987578 8.7162026e-22 -235.33333 88.474956 2.2986322e-17 0 -961556.58 0 -235.33333 -961468.11 2.2986322e-17
0.802505 -3.1729092 0 -7.8719128 0 -0 -9.8090973 0 0 -9.81 0 1.204 -236.22283 88.443428 2.303151e-17 -0.0062146103 0.035037091 8.7437329e-22 -236.22904 88.478465 2.3032384e-17 0 -961556.58 0 -236.22904 -961468.1 2.3032384e-17
0.803874 -3.1837011 0 -7.8853376 0 -0 -9.8090965 0 0 -9.81 0 1.204 -237.06751 88.525722 2.3097026e-17 -0.0062826431 0.035086404 8.7252008e-22 -237.07379 88.560808 2.3097899e-17 0 -961556.58 0 -237.07379 -961468.02 2.3097899e-17
0.805238 -3.1944761 0 -7.8987186 0 -0 -9.8090957 0 0 -9.81 0 1.204 -237.91548 88.607058 2.3166739e-17 -0.0063507044 0.035136106 8.6981613e-22 -237.92183 88.642194 2.3167609e-17 0 -961556.58 0 -237.92183 -961467.94 2.3167609e-17
0.806598 -3.2052379 0 -7.9120607 0 -0 -9.8090949 0 0 -9.81 0 1.204 -238.762 88.683532 2.3235668e-17 -0.0064188453 0.035186015 8.6748045e-22 -238.76841 88.718718 2.3236536e-17 0 -961556.58 0 -238.76841 -961467.86 2.3236536e-17
0.807954 -3.2159828 0 -7.9253596 0 -0 -9.8090939 0 0 -9.81 0 1.204 -239.58926 88.780762 2.3313987e-17 -0.0064870315 0.03523582 8.6366316e-22 -239.59575 88.815998 2.3314851e-17 0 -961556.58 0 -239.59575 -961467.76 2.3314851e-17
0.809305 -3.2267111 0 -7.9386156 0 -0 -9.8090927 0 0 -9.81 0 1.204 -240.40859 88.894229 2.3404478e-17 -0.0065550497 0.035286366 8.5712911e-22 -240.41515 88.929516 2.3405335e-17 0 -961556.58 0 -240.41515 -961467.65 2.3405335e-17
0.810652 -3.2374227 0 -7.951829 0 -0 -9.809092 0 0 -9.81 0 1.204 -241.20924 88.963656 2.3476599e-17 -0.0066231711 0.035337318 8.5433197e-22 -241.21586 88.998993 2.3477454e-17 0 -961556.58 0 -241.21586 -961467.58 2.3477454e-17
0.811995 -3.248121 0 -7.9650043 0 -0 -9.8090909 0 0 -9.81 0 1.204 -242.04255 89.069718 2.3558369e-17 -0.0066912462 0.035388676 8.5014275e-22 -242.04924 89.105106 2.3559219e-17 0 -961556.58 0 -242.04924 -961467.47 2.3559219e-17
0.813334 -3.2588028 0 -7.9781374 0 -0 -9.8090901 0 0 -9.81 0 1.204 -242.85987 89.15344 2.3632513e-17 -0.0067595071 0.035439934 8.4823111e-22 -242.86663 89.18888 2.3633362e-17 0 -961556.58 0 -242.86663 -961467.39 2.3633362e-17
0.814669 -3.2694679 0 -7.9912287 0 -0 -9.8090887 0 0 -9.81 0 1.204 -243.66972 89.287 2.3732862e-17 -0.0068278811 0.035492362 8.4050377e-22 -243.67655 89.322492 2.3733702e-17 0 -961556.58 0 -243.67655 -961467.26 2.3733702e-17
0.815999 -3.2801165 0 -8.0042784 0 -0 -9.8090875 0 0 -9.81 0 1.204 -244.47372 89.407604 2.3827699e-17 -0.006896443 0.035544477 8.3424755e-22 -244.48062 89.443149 2.3828533e-17 0 -961556.58 0 -244.48062 -961467.14 2.3828533e-17
0.817325 -3.2907487 0 -8.0172867 0 -0 -9.8090862 0 0 -9.81 0 1.204 -245.30453 89.533071 2.3920268e-17 -0.0069649549 0.035596276 8.291022e-22 -245.3115 89.568667 2.3921097e-17 0 -961556.58 0 -245.3115 -961467.01 2.3921097e-17
0.818647 -3.3013643 0 -8.0302539 0 -0 -9.8090849 0 0 -9.81 0 1.204 -246.14106 89.660817 2.4013481e-17 -0.0070335746 0.035647328 8.2409077e-22 -246.1481 89.696465 2.4014306e-17 0 -961556.58 0 -246.1481 -961466.88 2.4014306e-17
0.819965 -3.3119636 0 -8.0431802 0 -0 -9.809084 0 0 -9.81 0 1.204 -246.95834 89.753139 2.4092687e-17 -0.00710233 0.035697784 8.2202707e-22 -246.96544 89.788837 2.4093509e-17 0 -961556.58 0 -246.96544 -961466.79 2.4093509e-17
0.821278 -3.3225431 0 -8.0560619 0 -0 -9.809083 0 0 -9.81 0 1.204 -247.78126 89.8515 2.4173223e-17 -0.0071711977 0.035747352 8.1999246e-22 -247.78843 89.887247 2.4174043e-17 0 -961556.58 0 -247.78843 -961466.69 2.4174043e-17
0.822587 -3.333103 0 -8.0688992 0 -0 -9.8090821 0 0 -9.81 0 1.204 -248.59862 89.938511 2.4248529e-17 -0.0072401003 0.035796461 8.1876997e-22 -248.60586 89.974308 2.4249348e-17 0 -961556.58 0 -248.60586 -961466.61 2.4249348e-17
0.823891 -3.3436432 0 -8.0816924 0 -0 -9.8090811 0 0 -9.81 0 1.204 -249.41973 90.034198 2.4327046e-17 -0.0073090813 0.035845218 8.171461e-22 -249.42704 90.070043 2.4327863e-17 0 -961556.58 0 -249.42704 -961466.51 2.4327863e-17
0.825191 -3.354164 0 -8.0944417 0 -0 -9.8090801 0 0 -9.81 0 1.204 -250.2354 90.127564 2.4405367e-17 -0.0073781303 0.03589371 8.1576249e-22 -250.24278 90.163458 2.4406183e-17 0 -961556.58 0 -250.24278 -961466.42 2.4406183e-17
0.826486 -3.3646654 0 -8.1071476 0 -0 -9.8090792 0 0 -9.81 0 1.204 -251.04885 90.222791 2.4484797e-17 -0.0074472582 0.035941891 8.143749e-22 -251.05629 90.258733 2.4485611e-17 0 -961556.58 0 -251.05629 -961466.32 2.4485611e-17
0.827777 -3.3751473 0 -8.1198103 0 -0 -9.8090781 0 0 -9.81 0 1.204 -251.85398 90.330708 2.4568572e-17 -0.0075163474 0.035989483 8.1207752e-22 -251.86149 90.366698 2.4569384e-17 0 -961556.58 0 -251.86149 -961466.21 2.4569384e-17
0.829064 -3.3856099 0 -8.13243 0 -0 -9.8090769 0 0 -9.81 0 1.204 -252.65775 90.439789 2.4654045e-17 -0.0075854704 0.036036542 8.0957027e-22 -252.66534 90.475825 2.4654855e-17 0 -961556.58 0 -252.66534 -961466.1 2.4654855e-17
0.830346 -3.3960533 0 -8.145007 0 -0 -9.8090757 0 0 -9.81 0 1.204 -253.46787 90.560205 2.4744353e-17 -0.0076548492 0.036083309 8.0622007e-22 -253.47552 90.596288 2.4745159e-17 0 -961556.58 0 -253.47552 -961465.98 2.4745159e-17
0.831624 -3.4064775 0 -8.1575416 0 -0 -9.8090748 0 0 -9.81 0 1.204 -254.25197 90.652708 2.482533e-17 -0.0077243381 0.036130084 8.0481127e-22 -254.25969 90.688838 2.4826135e-17 0 -961556.58 0 -254.25969 -961465.89 2.4826135e-17
0.832897 -3.4168794 0 -8.1700303 0 -0 -9.8090737 0 0 -9.81 0 1.204 -255.05348 90.761991 2.4911425e-17 -0.0077941211 0.036176503 8.0282957e-22 -255.06128 90.798168 2.4912228e-17 0 -961556.58 0 -255.06128 -961465.78 2.4912228e-17
0.834166 -3.4272622 0 -8.1824771 0 -0 -9.8090725 0 0 -9.81 0 1.204 -255.8511 90.87132 2.4996988e-17 -0.0078640665 0.036222981 8.0084562e-22 -255.85897 90.907543 2.4997789e-17 0 -961556.58 0 -255.85897 -961465.67 2.4997789e-17
0.83543 -3.4376261 0 -8.1948824 0 -0 -9.8090709 0 0 -9.81 0 1.204 -256.67744 91.029401 2.5100611e-17 -0.0079343158 0.036268999 7.9634053e-22 -256.68537 91.06567 2.5101408e-17 0 -961556.58 0 -256.68537 -961465.51 2.5101408e-17
0.836691 -3.447971 0 -8.2072463 0 -0 -9.8090701 0 0 -9.81 0 1.204 -257.43978 91.114384 2.5180217e-17 -0.0080046798 0.036314984 7.9587996e-22 -257.44779 91.150699 2.5181013e-17 0 -961556.58 0 -257.44779 -961465.43 2.5181013e-17
0.837947 -3.4582971 0 -8.2195693 0 -0 -9.809068 0 0 -9.81 0 1.204 -258.29513 91.31634 2.529775e-17 -0.0080752795 0.036360234 7.8981334e-22 -258.30321 91.3527 2.529854e-17 0 -961556.58 0 -258.30321 -961465.23 2.529854e-17
0.839199 -3.4686012 0 -8.2318477 0 -0 -9.8090667 0 0 -9.81 0 1.204 -259.07733 91.448487 2.5394834e-17 -0.0081460389 0.036405762 7.8650568e-22 -259.08548 91.484892 2.5395621e-17 0 -961556.58 0 -259.08548 -961465.1 2.5395621e-17
0.840447 -3.4788867 0 -8.2440857 0 -0 -9.8090656 0 0 -9.81 0 1.204 -259.84515 91.555344 2.5483662e-17 -0.0082171591 0.036450608 7.8442626e-22 -259.85337 91.591795 2.5484446e-17 0 -961556.58 0 -259.85337 -961464.99 2.5484446e-17
0.84169 -3.4891535 0 -8.2562834 0 -0 -9.8090648 0 0 -9.81 0 1.204 -260.58671 91.62944 2.556139e-17 -0.0082886743 0.036494386 7.8489494e-22 -260.595 91.665935 2.5562175e-17 0 -961556.58 0 -260.595 -961464.91 2.5562175e-17
0.84293 -3.4994017 0 -8.2684411 0 -0 -9.8090634 0 0 -9.81 0 1.204 -261.37804 91.764305 2.5659278e-17 -0.0083601828 0.036537974 7.8196723e-22 -261.3864 91.800843 2.566006e-17 0 -961556.58 0 -261.3864 -961464.78 2.566006e-17
0.844165 -3.5096284 0 -8.2805555 0 -0 -9.8090622 0 0 -9.81 0 1.204 -262.1434 91.887272 2.5756466e-17 -0.0084318763 0.036581571 7.7898957e-22 -262.15183 91.923854 2.5757245e-17 0 -961556.58 0 -262.15183 -961464.66 2.5757245e-17
0.845396 -3.5198365 0 -8.2926303 0 -0 -9.8090609 0 0 -9.81 0 1.204 -262.90974 92.013702 2.5855538e-17 -0.0085037542 0.036625084 7.7560055e-22 -262.91825 92.050327 2.5856314e-17 0 -961556.58 0 -262.91825 -961464.53 2.5856314e-17
0.846623 -3.5300263 0 -8.304666 0 -0 -9.8090596 0 0 -9.81 0 1.204 -263.66554 92.137431 2.5955295e-17 -0.0085758034 0.036668638 7.7250599e-22 -263.67412 92.1741 2.5956068e-17 0 -961556.58 0 -263.67412 -961464.41 2.5956068e-17
0.847845 -3.5401948 0 -8.3166592 0 -0 -9.8090583 0 0 -9.81 0 1.204 -264.41902 92.262584 2.6056565e-17 -0.0086480383 0.03671211 7.6935112e-22 -264.42766 92.299296 2.6057335e-17 0 -961556.58 0 -264.42766 -961464.28 2.6057335e-17
0.849064 -3.550345 0 -8.3286136 0 -0 -9.809057 0 0 -9.81 0 1.204 -265.16717 92.391117 2.6159977e-17 -0.0087204655 0.036755557 7.6559223e-22 -265.17589 92.427873 2.6160743e-17 0 -961556.58 0 -265.17589 -961464.15 2.6160743e-17
0.850278 -3.560474 0 -8.340526 0 -0 -9.8090558 0 0 -9.81 0 1.204 -265.912 92.514014 2.6261265e-17 -0.0087931204 0.036798846 7.6278945e-22 -265.92079 92.550813 2.6262028e-17 0 -961556.58 0 -265.92079 -961464.03 2.6262028e-17
0.851489 -3.5705849 0 -8.3524003 0 -0 -9.809055 0 0 -9.81 0 1.204 -266.71537 92.59104 2.6330444e-17 -0.0088659831 0.036841851 7.6623982e-22 -266.72424 92.627882 2.6331211e-17 0 -961556.58 0 -266.72424 -961463.95 2.6331211e-17
0.852696 -3.5806777 0 -8.3642365 0 -0 -9.809054 0 0 -9.81 0 1.204 -267.4898 92.68544 2.6413467e-17 -0.0089389946 0.036885539 7.6737858e-22 -267.49874 92.722325 2.6414235e-17 0 -961556.58 0 -267.49874 -961463.86 2.6414235e-17
0.853898 -3.5907496 0 -8.3760315 0 -0 -9.8090529 0 0 -9.81 0 1.204 -268.24368 92.80068 2.6508714e-17 -0.0090120714 0.036929872 7.6606925e-22 -268.25269 92.83761 2.650948e-17 0 -961556.58 0 -268.25269 -961463.74 2.650948e-17
0.855097 -3.6008035 0 -8.3877891 0 -0 -9.8090516 0 0 -9.81 0 1.204 -268.98589 92.921612 2.6608019e-17 -0.0090852797 0.036974708 7.6365964e-22 -268.99498 92.958586 2.6608783e-17 0 -961556.58 0 -268.99498 -961463.62 2.6608783e-17
0.856291 -3.6108396 0 -8.3995093 0 -0 -9.8090503 0 0 -9.81 0 1.204 -269.7125 93.049989 2.6712778e-17 -0.0091587128 0.037019914 7.6064116e-22 -269.72166 93.087009 2.6713539e-17 0 -961556.58 0 -269.72166 -961463.49 2.6713539e-17
0.857482 -3.620855 0 -8.4111892 0 -0 -9.8090491 0 0 -9.81 0 1.204 -270.46506 93.169401 2.6812049e-17 -0.009232449 0.037066412 7.5850942e-22 -270.4743 93.206467 2.6812808e-17 0 -961556.58 0 -270.4743 -961463.37 2.6812808e-17
0.858669 -3.6308526 0 -8.4228322 0 -0 -9.8090485 0 0 -9.81 0 1.204 -271.24412 93.226251 2.688399e-17 -0.0093066183 0.037113784 7.6094596e-22 -271.25343 93.263365 2.6884751e-17 0 -961556.58 0 -271.25343 -961463.32 2.6884751e-17
0.859852 -3.6408297 0 -8.4344353 0 -0 -9.8090479 0 0 -9.81 0 1.204 -272.02069 93.284487 2.6957505e-17 -0.0093813361 0.037161517 7.6315882e-22 -272.03007 93.321649 2.6958268e-17 0 -961556.58 0 -272.03007 -961463.26 2.6958268e-17
0.861031 -3.6507892 0 -8.4460021 0 -0 -9.8090457 0 0 -9.81 0 1.204 -272.82792 93.496749 2.7094315e-17 -0.0094568001 0.037209355 7.548867e-22 -272.83738 93.533959 2.7095069e-17 0 -961556.58 0 -272.83738 -961463.05 2.7095069e-17
0.862207 -3.6607311 0 -8.4575327 0 -0 -9.8090452 0 0 -9.81 0 1.204 -273.52186 93.548931 2.7173527e-17 -0.0095329103 0.037256789 7.5628714e-22 -273.53139 93.586188 2.7174283e-17 0 -961556.58 0 -273.53139 -961462.99 2.7174283e-17
0.863379 -3.6706555 0 -8.4690274 0 -0 -9.809044 0 0 -9.81 0 1.204 -274.32897 93.664481 2.7263664e-17 -0.0096097169 0.03730389 7.5702637e-22 -274.33858 93.701784 2.7264421e-17 0 -961556.58 0 -274.33858 -961462.88 2.7264421e-17
0.864547 -3.6805625 0 -8.4804864 0 -0 -9.8090434 0 0 -9.81 0 1.204 -275.06414 93.730319 2.7347369e-17 -0.0096871504 0.037350339 7.5865065e-22 -275.07383 93.767669 2.7348127e-17 0 -961556.58 0 -275.07383 -961462.81 2.7348127e-17
0.865711 -3.6904493 0 -8.4919067 0 -0 -9.8090423 0 0 -9.81 0 1.204 -275.83532 93.831809 2.7439455e-17 -0.0097651848 0.037396753 7.5915066e-22 -275.84508 93.869206 2.7440214e-17 0 -961556.58 0 -275.84508 -961462.71 2.7440214e-17
0.866872 -3.7003187 0 -8.5032917 0 -0 -9.8090414 0 0 -9.81 0 1.204 -276.56407 93.924952 2.7535916e-17 -0.0098435867 0.037443109 7.5430902e-22 -276.57391 93.962395 2.753667e-17 0 -961556.58 0 -276.57391 -961462.62 2.753667e-17
0.868029 -3.7101709 0 -8.5146416 0 -0 -9.8090403 0 0 -9.81 0 1.204 -277.29447 94.032982 2.7638246e-17 -0.0099224359 0.037488306 7.4759024e-22 -277.30439 94.070471 2.7638994e-17 0 -961556.58 0 -277.30439 -961462.51 2.7638994e-17
0.869182 -3.7200059 0 -8.5259567 0 -0 -9.8090393 0 0 -9.81 0 1.204 -278.02158 94.131436 2.7739197e-17 -0.010001553 0.037532473 7.4013341e-22 -278.03158 94.168968 2.7739937e-17 0 -961556.58 0 -278.03158 -961462.41 2.7739937e-17
0.870332 -3.7298238 0 -8.5372372 0 -0 -9.8090382 0 0 -9.81 0 1.204 -278.73682 94.235378 2.7842427e-17 -0.010081116 0.037576348 7.3194334e-22 -278.7469 94.272955 2.7843158e-17 0 -961556.58 0 -278.7469 -961462.31 2.7843158e-17
0.871479 -3.7396246 0 -8.5484832 0 -0 -9.8090372 0 0 -9.81 0 1.204 -279.45915 94.336425 2.7943817e-17 -0.010161263 0.037619935 7.2538993e-22 -279.46931 94.374045 2.7944542e-17 0 -961556.58 0 -279.46931 -961462.21 2.7944542e-17
0.872622 -3.7494083 0 -8.5596949 0 -0 -9.8090362 0 0 -9.81 0 1.204 -280.18298 94.435894 2.8043493e-17 -0.010241859 0.03766341 7.1937279e-22 -280.19322 94.473557 2.8044212e-17 0 -961556.58 0 -280.19322 -961462.11 2.8044212e-17
0.873761 -3.7591724 0 -8.5708695 0 -0 -9.8090351 0 0 -9.81 0 1.204 -280.90479 94.535543 2.8143205e-17 -0.01032291 0.03770693 7.1358873e-22 -280.91512 94.57325 2.8143918e-17 0 -961556.58 0 -280.91512 -961462.01 2.8143918e-17
0.874897 -3.7689196 0 -8.5820103 0 -0 -9.8090341 0 0 -9.81 0 1.204 -281.62767 94.636566 2.8242452e-17 -0.010404408 0.03775051 7.0780994e-22 -281.63807 94.674316 2.8243159e-17 0 -961556.58 0 -281.63807 -961461.91 2.8243159e-17
0.876029 -3.7786499 0 -8.5931174 0 -0 -9.8090331 0 0 -9.81 0 1.204 -282.34577 94.736335 2.8341887e-17 -0.010486333 0.037794132 7.0245042e-22 -282.35626 94.774129 2.8342589e-17 0 -961556.58 0 -282.35626 -961461.81 2.8342589e-17
0.877158 -3.7883634 0 -8.6041911 0 -0 -9.8090321 0 0 -9.81 0 1.204 -283.0501 94.835638 2.8447126e-17 -0.010568715 0.037838117 6.9396032e-22 -283.06067 94.873477 2.844782e-17 0 -961556.58 0 -283.06067 -961461.71 2.844782e-17
0.878284 -3.7980601 0 -8.6152315 0 -0 -9.8090311 0 0 -9.81 0 1.204 -283.75729 94.927787 2.8551534e-17 -0.010651363 0.037881871 6.8656062e-22 -283.76794 94.965669 2.855222e-17 0 -961556.58 0 -283.76794 -961461.61 2.855222e-17
0.879406 -3.8077376 0 -8.6262359 0 -0 -9.80903 0 0 -9.81 0 1.204 -284.44735 95.035225 2.8662587e-17 -0.010734161 0.037925493 6.7858387e-22 -284.45808 95.07315 2.8663266e-17 0 -961556.58 0 -284.45808 -961461.51 2.8663266e-17
0.880524 -3.8173984 0 -8.6372074 0 -0 -9.8090294 0 0 -9.81 0 1.204 -285.10873 95.094707 2.8756748e-17 -0.010817237 0.03797029 6.7252335e-22 -285.11955 95.132677 2.8757421e-17 0 -961556.58 0 -285.11955 -961461.45 2.8757421e-17
0.881639 -3.8270426 0 -8.6481462 0 -0 -9.8090285 0 0 -9.81 0 1.204 -285.79099 95.188387 2.886295e-17 -0.010900538 0.03801545 6.6514524e-22 -285.80189 95.226403 2.8863615e-17 0 -961556.58 0 -285.80189 -961461.35 2.8863615e-17
0.882751 -3.8366703 0 -8.6590526 0 -0 -9.8090276 0 0 -9.81 0 1.204 -286.48615 95.27539 2.8963e-17 -0.010984094 0.038060977 6.5917571e-22 -286.49713 95.313451 2.8963659e-17 0 -961556.58 0 -286.49713 -961461.27 2.8963659e-17
0.88386 -3.8462816 0 -8.6699266 0 -0 -9.8090255 0 0 -9.81 0 1.204 -287.25904 95.480786 2.9101043e-17 -0.011067917 0.038106272 6.4692493e-22 -287.27011 95.518892 2.910169e-17 0 -961556.58 0 -287.27011 -961461.06 2.910169e-17
0.884965 -3.8558765 0 -8.6807686 0 -0 -9.8090238 0 0 -9.81 0 1.204 -287.98799 95.651469 2.9229805e-17 -0.011151867 0.038151666 6.3627669e-22 -287.99914 95.689621 2.9230442e-17 0 -961556.58 0 -287.99914 -961460.89 2.9230442e-17
0.886067 -3.8654575 0 -8.6915814 0 -0 -9.8090223 0 0 -9.81 0 1.204 -288.68015 95.795438 2.9354172e-17 -0.011235983 0.038197306 6.2586992e-22 -288.69139 95.833636 2.9354797e-17 0 -961556.58 0 -288.69139 -961460.75 2.9354797e-17
0.887167 -3.8750249 0 -8.7023654 0 -0 -9.809021 0 0 -9.81 0 1.204 -289.36593 95.918161 2.947095e-17 -0.011320202 0.038243133 6.1695105e-22 -289.37725 95.956404 2.9471567e-17 0 -961556.58 0 -289.37725 -961460.62 2.9471567e-17
0.888263 -3.8845759 0 -8.7131178 0 -0 -9.80902 0 0 -9.81 0 1.204 -290.06283 96.020923 2.9575656e-17 -0.011404473 0.038288846 6.1043151e-22 -290.07423 96.059212 2.9576267e-17 0 -961556.58 0 -290.07423 -961460.52 2.9576267e-17
0.889356 -3.8941133 0 -8.7238415 0 -0 -9.8090186 0 0 -9.81 0 1.204 -290.75363 96.155839 2.9695989e-17 -0.011488796 0.03833508 6.0074437e-22 -290.76512 96.194174 2.9696589e-17 0 -961556.58 0 -290.76512 -961460.39 2.9696589e-17
0.890446 -3.9036346 0 -8.734534 0 -0 -9.8090174 0 0 -9.81 0 1.204 -291.42698 96.278869 2.9814869e-17 -0.011573108 0.038381714 5.9122633e-22 -291.43856 96.317251 2.9815461e-17 0 -961556.58 0 -291.43856 -961460.26 2.9815461e-17
0.891533 -3.9131422 0 -8.7451982 0 -0 -9.8090161 0 0 -9.81 0 1.204 -292.10422 96.400191 2.9933231e-17 -0.011657366 0.03842878 5.8141019e-22 -292.11588 96.43862 2.9933812e-17 0 -961556.58 0 -292.11588 -961460.14 2.9933812e-17
0.892618 -3.9226363 0 -8.7558343 0 -0 -9.8090152 0 0 -9.81 0 1.204 -292.79083 96.489073 3.0031587e-17 -0.011741545 0.038475078 5.761471e-22 -292.80257 96.527548 3.0032163e-17 0 -961556.58 0 -292.80257 -961460.05 3.0032163e-17
0.893699 -3.9321168 0 -8.7664423 0 -0 -9.8090143 0 0 -9.81 0 1.204 -293.46669 96.574198 3.0125527e-17 -0.011825635 0.03852093 5.7184635e-22 -293.47852 96.612719 3.0126099e-17 0 -961556.58 0 -293.47852 -961459.97 3.0126099e-17
0.894778 -3.9415839 0 -8.7770225 0 -0 -9.8090136 0 0 -9.81 0 1.204 -294.15414 96.65096 3.0215584e-17 -0.011909634 0.038565845 5.6848037e-22 -294.16605 96.689526 3.0216153e-17 0 -961556.58 0 -294.16605 -961459.89 3.0216153e-17
0.895854 -3.95104 0 -8.7875777 0 -0 -9.8090129 0 0 -9.81 0 1.204 -294.89365 96.719703 3.0304179e-17 -0.011993548 0.038609589 5.6627669e-22 -294.90565 96.758312 3.0304745e-17 0 -961556.58 0 -294.90565 -961459.82 3.0304745e-17
0.896927 -3.9604826 0 -8.7981054 0 -0 -9.8090121 0 0 -9.81 0 1.204 -295.65713 96.788642 3.039394e-17 -0.01207732 0.038652371 5.6447918e-22 -295.6692 96.827294 3.0394504e-17 0 -961556.58 0 -295.6692 -961459.75 3.0394504e-17
0.897998 -3.9699119 0 -8.8086055 0 -0 -9.8090114 0 0 -9.81 0 1.204 -296.34245 96.865849 3.0487038e-17 -0.012161889 0.038695203 5.6022092e-22 -296.35461 96.904544 3.0487598e-17 0 -961556.58 0 -296.35461 -961459.68 3.0487598e-17
0.899066 -3.9793302 0 -8.8190811 0 -0 -9.8090105 0 0 -9.81 0 1.204 -297.03409 96.95421 3.0584402e-17 -0.012247363 0.038738331 5.5501685e-22 -297.04634 96.992948 3.0584957e-17 0 -961556.58 0 -297.04634 -961459.59 3.0584957e-17
0.900131 -3.9887353 0 -8.8295294 0 -0 -9.8090093 0 0 -9.81 0 1.204 -297.73119 97.064578 3.0690588e-17 -0.012333605 0.038781964 5.4837679e-22 -297.74352 97.10336 3.0691136e-17 0 -961556.58 0 -297.74352 -961459.48 3.0691136e-17
0.901193 -3.9981294 0 -8.8399534 0 -0 -9.8090083 0 0 -9.81 0 1.204 -298.4079 97.160877 3.0792814e-17 -0.01242045 0.03882635 5.4174893e-22 -298.42032 97.199703 3.0793355e-17 0 -961556.58 0 -298.42032 -961459.38 3.0793355e-17
0.902254 -4.0075127 0 -8.8503531 0 -0 -9.8090074 0 0 -9.81 0 1.204 -299.10586 97.251717 3.0887056e-17 -0.012507844 0.038870407 5.3724735e-22 -299.11836 97.290588 3.0887594e-17 0 -961556.58 0 -299.11836 -961459.29 3.0887594e-17
0.903311 -4.0168852 0 -8.8607286 0 -0 -9.8090045 0 0 -9.81 0 1.204 -299.93047 97.541228 3.1046518e-17 -0.012595525 0.038912851 5.2591133e-22 -299.94307 97.580141 3.1047044e-17 0 -961556.58 0 -299.94307 -961459 3.1047044e-17
0.904367 -4.0262469 0 -8.8710801 0 -0 -9.8090048 0 0 -9.81 0 1.204 -300.46971 97.510774 3.1112858e-17 -0.012683555 0.038955861 5.2734691e-22 -300.48239 97.54973 3.1113385e-17 0 -961556.58 0 -300.48239 -961459.03 3.1113385e-17
0.90542 -4.0355978 0 -8.8814076 0 -0 -9.8090028 0 0 -9.81 0 1.204 -301.18364 97.701823 3.1247855e-17 -0.012771879 0.038998503 5.1920542e-22 -301.19641 97.740821 3.1248374e-17 0 -961556.58 0 -301.19641 -961458.84 3.1248374e-17
0.90647 -4.0449379 0 -8.8917113 0 -0 -9.8090025 0 0 -9.81 0 1.204 -301.87251 97.738321 3.1333471e-17 -0.012860377 0.039040054 5.1985118e-22 -301.88537 97.777361 3.1333991e-17 0 -961556.58 0 -301.88537 -961458.8 3.1333991e-17
0.907518 -4.0542673 0 -8.9019912 0 -0 -9.8090011 0 0 -9.81 0 1.204 -302.52846 97.871322 3.145856e-17 -0.012948793 0.039080857 5.1280334e-22 -302.5414 97.910403 3.1459073e-17 0 -961556.58 0 -302.5414 -961458.67 3.1459073e-17
0.908564 -4.063586 0 -8.9122475 0 -0 -9.8090003 0 0 -9.81 0 1.204 -303.20527 97.947435 3.15555e-17 -0.013037081 0.039120726 5.1057258e-22 -303.21831 97.986556 3.155601e-17 0 -961556.58 0 -303.21831 -961458.59 3.155601e-17
0.909607 -4.0728939 0 -8.9224803 0 -0 -9.8089993 0 0 -9.81 0 1.204 -303.83005 98.047407 3.1673746e-17 -0.013125303 0.039162941 5.0309053e-22 -303.84318 98.08657 3.1674249e-17 0 -961556.58 0 -303.84318 -961458.49 3.1674249e-17
0.910648 -4.0821912 0 -8.9326896 0 -0 -9.8089975 0 0 -9.81 0 1.204 -304.49825 98.223863 3.1823084e-17 -0.013213231 0.039206613 4.902003e-22 -304.51147 98.26307 3.1823574e-17 0 -961556.58 0 -304.51147 -961458.32 3.1823574e-17
0.911686 -4.0914777 0 -8.9428756 0 -0 -9.808996 0 0 -9.81 0 1.204 -305.13277 98.367178 3.1964328e-17 -0.013300795 0.039251557 4.7816921e-22 -305.14607 98.40643 3.1964807e-17 0 -961556.58 0 -305.14607 -961458.17 3.1964807e-17
0.912722 -4.1007537 0 -8.9530384 0 -0 -9.8089948 0 0 -9.81 0 1.204 -305.76928 98.491633 3.2096488e-17 -0.013387952 0.039297022 4.6793026e-22 -305.78267 98.53093 3.2096956e-17 0 -961556.58 0 -305.78267 -961458.05 3.2096956e-17
0.913756 -4.110019 0 -8.963178 0 -0 -9.8089932 0 0 -9.81 0 1.204 -306.4333 98.641962 3.2236521e-17 -0.0134746 0.039343122 4.5686145e-22 -306.44678 98.681305 3.2236978e-17 0 -961556.58 0 -306.44678 -961457.9 3.2236978e-17
0.914787 -4.119276 0 -8.9732971 0 -0 -9.8089928 0 0 -9.81 0 1.204 -307.03833 98.68457 3.2333779e-17 -0.013560552 0.03938828 4.5310397e-22 -307.05189 98.723958 3.2334232e-17 0 -961556.58 0 -307.05189 -961457.86 3.2334232e-17
0.915817 -4.1285224 0 -8.9833933 0 -0 -9.8089919 0 0 -9.81 0 1.204 -307.69763 98.77608 3.2444581e-17 -0.013645779 0.039433419 4.4779879e-22 -307.71127 98.815514 3.2445029e-17 0 -961556.58 0 -307.71127 -961457.76 3.2445029e-17
0.916844 -4.1377606 0 -8.9934692 0 -0 -9.8089906 0 0 -9.81 0 1.204 -308.37991 98.901934 3.2567262e-17 -0.01373018 0.039478661 4.40596e-22 -308.39364 98.941412 3.2567702e-17 0 -961556.58 0 -308.39364 -961457.64 3.2567702e-17
0.917869 -4.1469882 0 -9.0035224 0 -0 -9.8089893 0 0 -9.81 0 1.204 -309.0563 99.027042 3.269017e-17 -0.013813681 0.039523587 4.337749e-22 -309.07011 99.066565 3.2690603e-17 0 -961556.58 0 -309.07011 -961457.51 3.2690603e-17
0.918892 -4.1562076 0 -9.0135553 0 -0 -9.8089882 0 0 -9.81 0 1.204 -309.73516 99.134619 3.2803933e-17 -0.013896182 0.039567228 4.2875894e-22 -309.74905 99.174187 3.2804362e-17 0 -961556.58 0 -309.74905 -961457.41 3.2804362e-17
0.919912 -4.1654164 0 -9.0235657 0 -0 -9.8089869 0 0 -9.81 0 1.204 -310.40633 99.262301 3.2926357e-17 -0.013977672 0.039610895 4.2171018e-22 -310.42031 99.301912 3.2926778e-17 0 -961556.58 0 -310.42031 -961457.28 3.2926778e-17
0.920931 -4.1746171 0 -9.0335561 0 -0 -9.8089858 0 0 -9.81 0 1.204 -311.05393 99.37462 3.3046973e-17 -0.014058176 0.039655667 4.1397162e-22 -311.06798 99.414276 3.3047387e-17 0 -961556.58 0 -311.06798 -961457.17 3.3047387e-17
0.921947 -4.1838095 0 -9.0435266 0 -0 -9.8089847 0 0 -9.81 0 1.204 -311.69224 99.47679 3.316552e-17 -0.014137698 0.039700503 4.0673986e-22 -311.70638 99.516491 3.3165926e-17 0 -961556.58 0 -311.70638 -961457.06 3.3165926e-17
0.922962 -4.1929937 0 -9.0534772 0 -0 -9.8089835 0 0 -9.81 0 1.204 -312.34245 99.591051 3.3288023e-17 -0.014216268 0.039745525 3.9885204e-22 -312.35666 99.630796 3.3288422e-17 0 -961556.58 0 -312.35666 -961456.95 3.3288422e-17
0.923974 -4.2021697 0 -9.0634081 0 -0 -9.808982 0 0 -9.81 0 1.204 -313.0228 99.74455 3.34245e-17 -0.014293899 0.03979093 3.8874542e-22 -313.03709 99.784341 3.3424889e-17 0 -961556.58 0 -313.03709 -961456.8 3.3424889e-17
0.924984 -4.2113376 0 -9.0733193 0 -0 -9.8089812 0 0 -9.81 0 1.204 -313.62994 99.821713 3.3537085e-17 -0.014370383 0.03983467 3.8142395e-22 -313.64431 99.861548 3.3537467e-17 0 -961556.58 0 -313.64431 -961456.72 3.3537467e-17
0.925993 -4.2204972 0 -9.0832108 0 -0 -9.8089805 0 0 -9.81 0 1.204 -314.24061 99.890626 3.3645665e-17 -0.014445774 0.039877847 3.7473576e-22 -314.25506 99.930504 3.364604e-17 0 -961556.58 0 -314.25506 -961456.65 3.364604e-17
0.926999 -4.2296487 0 -9.0930828 0 -0 -9.8089794 0 0 -9.81 0 1.204 -314.88948 100.0009 3.3767036e-17 -0.014520209 0.039921258 3.6666797e-22 -314.904 100.04082 3.3767402e-17 0 -961556.58 0 -314.904 -961456.54 3.3767402e-17
0.928004 -4.2387921 0 -9.1029353 0 -0 -9.8089782 0 0 -9.81 0 1.204 -315.53871 100.1147 3.3889011e-17 -0.014593715 0.039964389 3.5868014e-22 -315.55331 100.15467 3.388937e-17 0 -961556.58 0 -315.55331 -961456.43 3.388937e-17
0.929006 -4.2479295 0 -9.1127709 0 -0 -9.8089765 0 0 -9.81 0 1.204 -316.23476 100.28338 3.4029138e-17 -0.01466634 0.040007853 3.4807866e-22 -316.24943 100.32339 3.4029486e-17 0 -961556.58 0 -316.24943 -961456.26 3.4029486e-17
0.930007 -4.2570588 0 -9.1225871 0 -0 -9.8089758 0 0 -9.81 0 1.204 -316.84007 100.34972 3.4134906e-17 -0.014738122 0.040050847 3.4279557e-22 -316.85481 100.38977 3.4135249e-17 0 -961556.58 0 -316.85481 -961456.19 3.4135249e-17
0.931006 -4.26618 0 -9.132384 0 -0 -9.8089749 0 0 -9.81 0 1.204 -317.49127 100.4372 3.4242902e-17 -0.014809117 0.040093372 3.3754319e-22 -317.50608 100.4773 3.4243239e-17 0 -961556.58 0 -317.50608 -961456.1 3.4243239e-17
0.932003 -4.2752953 0 -9.1421641 0 -0 -9.8089733 0 0 -9.81 0 1.204 -318.18505 100.59078 3.4376215e-17 -0.014879356 0.040136389 3.2799272e-22 -318.19993 100.63091 3.4376543e-17 0 -961556.58 0 -318.19993 -961455.95 3.4376543e-17
0.932998 -4.2844024 0 -9.1519251 0 -0 -9.8089717 0 0 -9.81 0 1.204 -318.82715 100.75332 3.4521244e-17 -0.014948823 0.04017992 3.1646255e-22 -318.8421 100.7935 3.452156e-17 0 -961556.58 0 -318.8421 -961455.79 3.452156e-17
0.933991 -4.2935037 0 -9.1616694 0 -0 -9.8089704 0 0 -9.81 0 1.204 -319.44443 100.87905 3.4654142e-17 -0.015017343 0.040223708 3.0918941e-22 -319.45945 100.91927 3.4654451e-17 0 -961556.58 0 -319.45945 -961455.66 3.4654451e-17
0.934983 -4.3025968 0 -9.1713946 0 -0 -9.8089693 0 0 -9.81 0 1.204 -320.06371 100.98557 3.4777907e-17 -0.015085034 0.040267481 3.0454391e-22 -320.0788 101.02584 3.4778212e-17 0 -961556.58 0 -320.0788 -961455.55 3.4778212e-17
0.935973 -4.311684 0 -9.1811033 0 -0 -9.8089677 0 0 -9.81 0 1.204 -320.73639 101.14484 3.4917269e-17 -0.01515196 0.040311506 2.9765357e-22 -320.75154 101.18515 3.4917567e-17 0 -961556.58 0 -320.75154 -961455.39 3.4917567e-17
0.936961 -4.3207632 0 -9.1907931 0 -0 -9.8089667 0 0 -9.81 0 1.204 -321.34282 101.23685 3.503411e-17 -0.015218107 0.040355475 2.9417487e-22 -321.35803 101.2772 3.5034404e-17 0 -961556.58 0 -321.35803 -961455.3 3.5034404e-17
0.937947 -4.3298365 0 -9.2004665 0 -0 -9.8089658 0 0 -9.81 0 1.204 -321.96575 101.33449 3.5150308e-17 -0.015283465 0.040399288 2.908316e-22 -321.98104 101.37489 3.5150599e-17 0 -961556.58 0 -321.98104 -961455.21 3.5150599e-17
0.938931 -4.3389038 0 -9.2101234 0 -0 -9.8089639 0 0 -9.81 0 1.204 -322.65427 101.52068 3.5297544e-17 -0.015347998 0.040443525 2.8316812e-22 -322.66962 101.56113 3.5297827e-17 0 -961556.58 0 -322.66962 -961455.02 3.5297827e-17
0.939914 -4.3479653 0 -9.219764 0 -0 -9.8089623 0 0 -9.81 0 1.204 -323.29931 101.67045 3.5434054e-17 -0.015411512 0.040488388 2.7673176e-22 -323.31472 101.71094 3.543433e-17 0 -961556.58 0 -323.31472 -961454.87 3.543433e-17
0.940895 -4.357021 0 -9.2293883 0 -0 -9.8089604 0 0 -9.81 0 1.204 -323.96816 101.85549 3.5578979e-17 -0.015474214 0.040532105 2.7044079e-22 -323.98363 101.89602 3.5579249e-17 0 -961556.58 0 -323.98363 -961454.68 3.5579249e-17
0.941875 -4.3660707 0 -9.2389963 0 -0 -9.8089593 0 0 -9.81 0 1.204 -324.58134 101.96703 3.5710633e-17 -0.01553667 0.040574274 2.6385913e-22 -324.59688 102.0076 3.5710897e-17 0 -961556.58 0 -324.59688 -961454.57 3.5710897e-17
0.942852 -4.3751123 0 -9.2485858 0 -0 -9.8089578 0 0 -9.81 0 1.204 -325.27963 102.11191 3.58427e-17 -0.015599251 0.040614358 2.5886783e-22 -325.29523 102.15252 3.5842959e-17 0 -961556.58 0 -325.29523 -961454.43 3.5842959e-17
0.943828 -4.3841481 0 -9.2581591 0 -0 -9.8089568 0 0 -9.81 0 1.204 -325.90148 102.2141 3.5961944e-17 -0.015661734 0.040653597 2.5536997e-22 -325.91714 102.25476 3.59622e-17 0 -961556.58 0 -325.91714 -961454.33 3.59622e-17
0.944803 -4.393178 0 -9.2677164 0 -0 -9.8089557 0 0 -9.81 0 1.204 -326.53416 102.32402 3.6082798e-17 -0.015724127 0.040692723 2.5154335e-22 -326.54988 102.36471 3.6083049e-17 0 -961556.58 0 -326.54988 -961454.22 3.6083049e-17
0.945775 -4.402202 0 -9.2772576 0 -0 -9.8089545 0 0 -9.81 0 1.204 -327.15106 102.44161 3.6209589e-17 -0.01578625 0.040730405 2.467385e-22 -327.16684 102.48234 3.6209836e-17 0 -961556.58 0 -327.16684 -961454.1 3.6209836e-17
0.946746 -4.4112201 0 -9.2867828 0 -0 -9.8089534 0 0 -9.81 0 1.204 -327.76064 102.54695 3.6330493e-17 -0.015847981 0.040766224 2.4284636e-22 -327.77649 102.58771 3.6330736e-17 0 -961556.58 0 -327.77649 -961453.99 3.6330736e-17
0.947716 -4.4202346 0 -9.2962943 0 -0 -9.8089522 0 0 -9.81 0 1.204 -328.35807 102.6641 3.645766e-17 -0.015908994 0.040800956 2.3798451e-22 -328.37398 102.7049 3.6457898e-17 0 -961556.58 0 -328.37398 -961453.88 3.6457898e-17
0.948684 -4.4292431 0 -9.3057899 0 -0 -9.8089519 0 0 -9.81 0 1.204 -328.95763 102.68994 3.6554546e-17 -0.015969273 0.040835066 2.3814159e-22 -328.9736 102.73077 3.6554784e-17 0 -961556.58 0 -328.9736 -961453.85 3.6554784e-17
0.949651 -4.4382457 0 -9.3152697 0 -0 -9.808951 0 0 -9.81 0 1.204 -329.58571 102.77518 3.6675014e-17 -0.016028681 0.040868561 2.3476536e-22 -329.60174 102.81605 3.6675249e-17 0 -961556.58 0 -329.60174 -961453.76 3.6675249e-17
0.950615 -4.4472425 0 -9.3247336 0 -0 -9.8089499 0 0 -9.81 0 1.204 -330.20238 102.88638 3.6806126e-17 -0.016087189 0.040901642 2.2965206e-22 -330.21847 102.92728 3.6806356e-17 0 -961556.58 0 -330.21847 -961453.65 3.6806356e-17
0.951579 -4.4562334 0 -9.3341818 0 -0 -9.8089488 0 0 -9.81 0 1.204 -330.81436 102.9955 3.6936317e-17 -0.016144683 0.040934149 2.2478856e-22 -330.8305 103.03643 3.6936542e-17 0 -961556.58 0 -330.8305 -961453.54 3.6936542e-17
0.95254 -4.4652184 0 -9.3436143 0 -0 -9.8089475 0 0 -9.81 0 1.204 -331.42836 103.12081 3.7072769e-17 -0.01620115 0.040966252 2.1911255e-22 -331.44456 103.16178 3.7072988e-17 0 -961556.58 0 -331.44456 -961453.42 3.7072988e-17
0.9535 -4.4741975 0 -9.3530311 0 -0 -9.808946 0 0 -9.81 0 1.204 -332.02587 103.27461 3.7225149e-17 -0.016256364 0.040998194 2.1100106e-22 -332.04212 103.31561 3.722536e-17 0 -961556.58 0 -332.04212 -961453.26 3.722536e-17
0.954459 -4.4831708 0 -9.3624323 0 -0 -9.8089448 0 0 -9.81 0 1.204 -332.66075 103.38426 3.7361071e-17 -0.016310444 0.041029779 2.0573246e-22 -332.67706 103.42529 3.7361277e-17 0 -961556.58 0 -332.67706 -961453.15 3.7361277e-17
0.955416 -4.4921403 0 -9.3718202 0 -0 -9.8089435 0 0 -9.81 0 1.204 -333.2347 103.51807 3.7506992e-17 -0.016363378 0.041060935 1.9811062e-22 -333.25107 103.55913 3.7507191e-17 0 -961556.58 0 -333.25107 -961453.02 3.7507191e-17
0.956371 -4.5011039 0 -9.3811925 0 -0 -9.8089427 0 0 -9.81 0 1.204 -333.86416 103.59376 3.7620375e-17 -0.016415194 0.041091142 1.9636466e-22 -333.88058 103.63485 3.7620571e-17 0 -961556.58 0 -333.88058 -961452.95 3.7620571e-17
0.957325 -4.5100638 0 -9.3905516 0 -0 -9.8089411 0 0 -9.81 0 1.204 -334.44917 103.74837 3.777427e-17 -0.016465892 0.04112118 1.8799035e-22 -334.46564 103.78949 3.7774458e-17 0 -961556.58 0 -334.46564 -961452.79 3.7774458e-17
0.958278 -4.5190178 0 -9.3998952 0 -0 -9.8089395 0 0 -9.81 0 1.204 -335.0017 103.90298 3.7932866e-17 -0.016515409 0.041151203 1.7849372e-22 -335.01822 103.94413 3.7933045e-17 0 -961556.58 0 -335.01822 -961452.64 3.7933045e-17
0.959229 -4.527968 0 -9.4092256 0 -0 -9.8089382 0 0 -9.81 0 1.204 -335.57639 104.0331 3.8079814e-17 -0.016563715 0.041180911 1.7053724e-22 -335.59295 104.07428 3.8079985e-17 0 -961556.58 0 -335.59295 -961452.51 3.8079985e-17
0.960179 -4.5369144 0 -9.4185429 0 -0 -9.8089361 0 0 -9.81 0 1.204 -336.21916 104.23675 3.8244911e-17 -0.016610838 0.041210278 1.6033965e-22 -336.23577 104.27796 3.8245071e-17 0 -961556.58 0 -336.23577 -961452.3 3.8245071e-17
0.961128 -4.5458571 0 -9.4278471 0 -0 -9.8089345 0 0 -9.81 0 1.204 -336.84222 104.39787 3.839923e-17 -0.016656758 0.041239278 1.5226447e-22 -336.85887 104.43911 3.8399382e-17 0 -961556.58 0 -336.85887 -961452.14 3.8399382e-17
0.962075 -4.554796 0 -9.4371381 0 -0 -9.8089334 0 0 -9.81 0 1.204 -337.50269 104.50271 3.8554042e-17 -0.016701456 0.041267996 1.4660251e-22 -337.51939 104.54398 3.8554188e-17 0 -961556.58 0 -337.51939 -961452.04 3.8554188e-17
0.963021 -4.5637311 0 -9.4464161 0 -0 -9.8089314 0 0 -9.81 0 1.204 -338.20458 104.69585 3.8728894e-17 -0.016744955 0.041296715 1.3620437e-22 -338.22133 104.73715 3.872903e-17 0 -961556.58 0 -338.22133 -961451.84 3.872903e-17
0.963965 -4.5726624 0 -9.455681 0 -0 -9.808931 0 0 -9.81 0 1.204 -338.8079 104.73785 3.8871772e-17 -0.016787262 0.041325381 1.3163885e-22 -338.82469 104.77918 3.8871904e-17 0 -961556.58 0 -338.82469 -961451.8 3.8871904e-17
0.964909 -4.581592 0 -9.4649352 0 -0 -9.8089289 0 0 -9.81 0 1.204 -339.4801 104.9447 3.9038749e-17 -0.016828441 0.041353496 1.2145611e-22 -339.49693 104.98606 3.903887e-17 0 -961556.58 0 -339.49693 -961451.59 3.903887e-17
0.965851 -4.5905178 0 -9.4741763 0 -0 -9.808928 0 0 -9.81 0 1.204 -340.1271 105.03728 3.9163182e-17 -0.016868254 0.041378227 1.1846938e-22 -340.14397 105.07866 3.9163301e-17 0 -961556.58 0 -340.14397 -961451.5 3.9163301e-17
0.966792 -4.5994418 0 -9.4834067 0 -0 -9.8089272 0 0 -9.81 0 1.204 -340.7146 105.11235 3.9285597e-17 -0.016906647 0.041400336 1.1504604e-22 -340.73151 105.15375 3.9285712e-17 0 -961556.58 0 -340.73151 -961451.43 3.9285712e-17
0.967732 -4.6083642 0 -9.4926264 0 -0 -9.8089259 0 0 -9.81 0 1.204 -341.29448 105.23553 3.94336e-17 -0.01694354 0.041421344 1.0763105e-22 -341.31142 105.27695 3.9433708e-17 0 -961556.58 0 -341.31142 -961451.3 3.9433708e-17
0.968671 -4.6172848 0 -9.5018353 0 -0 -9.8089247 0 0 -9.81 0 1.204 -341.90309 105.35494 3.957882e-17 -0.016978844 0.041441383 1.0079742e-22 -341.92007 105.39638 3.9578921e-17 0 -961556.58 0 -341.92007 -961451.18 3.9578921e-17
0.969608 -4.6262015 0 -9.5110313 0 -0 -9.808924 0 0 -9.81 0 1.204 -342.49492 105.42451 3.9705618e-17 -0.017012548 0.041460241 9.6848284e-23 -342.51193 105.46597 3.9705715e-17 0 -961556.58 0 -342.51193 -961451.11 3.9705715e-17
0.970545 -4.6351165 0 -9.5202167 0 -0 -9.8089228 0 0 -9.81 0 1.204 -343.11796 105.54617 3.9851473e-17 -0.01704458 0.041477754 9.015135e-23 -343.135 105.58765 3.9851563e-17 0 -961556.58 0 -343.135 -961450.99 3.9851563e-17
0.97148 -4.6440298 0 -9.5293914 0 -0 -9.8089212 0 0 -9.81 0 1.204 -343.7414 105.69904 4.0015701e-17 -0.01707486 0.041494707 8.0642219e-23 -343.75847 105.74054 4.0015781e-17 0 -961556.58 0 -343.75847 -961450.84 4.0015781e-17
0.972414 -4.6529433 0 -9.5385576 0 -0 -9.8089197 0 0 -9.81 0 1.204 -344.36738 105.84747 4.0175851e-17 -0.017103311 0.041511213 7.1501101e-23 -344.38449 105.88898 4.0175922e-17 0 -961556.58 0 -344.38449 -961450.69 4.0175922e-17
0.973348 -4.6618551 0 -9.5477131 0 -0 -9.808918 0 0 -9.81 0 1.204 -344.98937 106.01035 4.0339976e-17 -0.017129905 0.041527302 6.1741279e-23 -345.0065 106.05187 4.0340037e-17 0 -961556.58 0 -345.0065 -961450.53 4.0340037e-17
0.97428 -4.670765 0 -9.5568581 0 -0 -9.8089169 0 0 -9.81 0 1.204 -345.56224 106.11851 4.0484631e-17 -0.017154654 0.041542802 5.4442853e-23 -345.57939 106.16006 4.0484685e-17 0 -961556.58 0 -345.57939 -961450.42 4.0484685e-17
0.975211 -4.6796732 0 -9.5659925 0 -0 -9.8089157 0 0 -9.81 0 1.204 -346.15953 106.23993 4.0632811e-17 -0.017177576 0.041557744 4.6772111e-23 -346.17671 106.28149 4.0632858e-17 0 -961556.58 0 -346.17671 -961450.3 4.0632858e-17
0.976142 -4.6885816 0 -9.5751184 0 -0 -9.8089148 0 0 -9.81 0 1.204 -346.73049 106.32502 4.0768434e-17 -0.017198656 0.041572034 4.0846791e-23 -346.74769 106.36659 4.0768475e-17 0 -961556.58 0 -346.74769 -961450.21 4.0768475e-17
0.977071 -4.6974882 0 -9.5842338 0 -0 -9.8089131 0 0 -9.81 0 1.204 -347.38946 106.49737 4.0929852e-17 -0.017217891 0.041585718 3.2016686e-23 -347.40667 106.53896 4.0929884e-17 0 -961556.58 0 -347.40667 -961450.04 4.0929884e-17
0.977999 -4.7063951 0 -9.5933408 0 -0 -9.8089111 0 0 -9.81 0 1.204 -348.06298 106.68808 4.1096443e-17 -0.017235276 0.041598829 2.2574649e-23 -348.08021 106.72968 4.1096466e-17 0 -961556.58 0 -348.08021 -961449.85 4.1096466e-17
0.978927 -4.7153021 0 -9.6024394 0 -0 -9.8089102 0 0 -9.81 0 1.204 -348.6487 106.78146 4.1235993e-17 -0.017250809 0.041611706 1.6103536e-23 -348.66595 106.82307 4.1236009e-17 0 -961556.58 0 -348.66595 -961449.76 4.1236009e-17
0.979854 -4.7242073 0 -9.6115275 0 -0 -9.8089086 0 0 -9.81 0 1.204 -349.29129 106.93427 4.1393463e-17 -0.01726449 0.041624202 7.6368663e-24 -349.30855 106.9759 4.139347e-17 0 -961556.58 0 -349.30855 -961449.6 4.139347e-17
0.980779 -4.7331128 0 -9.6206072 0 -0 -9.8089074 0 0 -9.81 0 1.204 -349.90262 107.05311 4.1541225e-17 -0.017276337 0.041636387 2.5266722e-25 -349.91989 107.09475 4.1541225e-17 0 -961556.58 0 -349.91989 -961449.49 4.1541225e-17
0.981704 -4.7420184 0 -9.6296786 0 -0 -9.808906 0 0 -9.81 0 1.204 -350.52583 107.18852 4.1695081e-17 -0.01728695 0.041648452 -7.6752524e-24 -350.54312 107.23017 4.1695073e-17 0 -961556.58 0 -350.54312 -961449.35 4.1695073e-17
0.982627 -4.750918 0 -9.6387353 0 -0 -9.8089046 0 0 -9.81 0 1.204 -351.137 107.32558 4.185318e-17 -0.017296573 0.041661091 -1.6711929e-23 -351.15429 107.36724 4.1853164e-17 0 -961556.58 0 -351.15429 -961449.21 4.1853164e-17
0.983549 -4.7598117 0 -9.6477776 0 -0 -9.8089032 0 0 -9.81 0 1.204 -351.7511 107.46747 4.2013457e-17 -0.017305474 0.04167379 -2.8899394e-23 -351.76841 107.50915 4.2013428e-17 0 -961556.58 0 -351.76841 -961449.07 4.2013428e-17
0.984469 -4.7686974 0 -9.6568032 0 -0 -9.8089017 0 0 -9.81 0 1.204 -352.36642 107.6154 4.2175723e-17 -0.017313372 0.041685978 -4.1526029e-23 -352.38373 107.65708 4.2175681e-17 0 -961556.58 0 -352.38373 -961448.92 4.2175681e-17
0.985388 -4.7775772 0 -9.6658144 0 -0 -9.8089001 0 0 -9.81 0 1.204 -352.9811 107.77198 4.2341389e-17 -0.017320198 0.041697907 -5.4542013e-23 -352.99842 107.81368 4.2341335e-17 0 -961556.58 0 -352.99842 -961448.77 4.2341335e-17
0.986305 -4.7864489 0 -9.6748091 0 -0 -9.8088985 0 0 -9.81 0 1.204 -353.59787 107.92815 4.2506532e-17 -0.017325941 0.041709519 -6.7649001e-23 -353.6152 107.96986 4.2506464e-17 0 -961556.58 0 -353.6152 -961448.61 4.2506464e-17
0.98722 -4.7953148 0 -9.6837895 0 -0 -9.8088975 0 0 -9.81 0 1.204 -354.23427 108.02362 4.2642642e-17 -0.01733056 0.041720747 -7.6526964e-23 -354.2516 108.06534 4.2642565e-17 0 -961556.58 0 -354.2516 -961448.51 4.2642565e-17
0.988135 -4.8041747 0 -9.6927556 0 -0 -9.8088969 0 0 -9.81 0 1.204 -354.82234 108.08424 4.27733e-17 -0.017334119 0.041731926 -8.4739349e-23 -354.83967 108.12597 4.2773215e-17 0 -961556.58 0 -354.83967 -961448.45 4.2773215e-17
0.989047 -4.8130286 0 -9.7017073 0 -0 -9.8088963 0 0 -9.81 0 1.204 -355.40921 108.14011 4.2906886e-17 -0.017336677 0.041743232 -9.7476845e-23 -355.42654 108.18186 4.2906788e-17 0 -961556.58 0 -355.42654 -961448.4 4.2906788e-17
0.989958 -4.8218766 0 -9.7106449 0 -0 -9.8088955 0 0 -9.81 0 1.204 -355.98523 108.21664 4.3043749e-17 -0.017338076 0.041754541 -1.1216613e-22 -356.00257 108.25839 4.3043637e-17 0 -961556.58 0 -356.00257 -961448.32 4.3043637e-17
0.990868 -4.8307187 0 -9.7195682 0 -0 -9.8088943 0 0 -9.81 0 1.204 -356.59017 108.33502 4.3194477e-17 -0.017338292 0.041766001 -1.2858909e-22 -356.6075 108.37678 4.3194349e-17 0 -961556.58 0 -356.6075 -961448.2 4.3194349e-17
0.991776 -4.8395548 0 -9.7284774 0 -0 -9.8088931 0 0 -9.81 0 1.204 -357.19209 108.45402 4.3345014e-17 -0.017337318 0.041777602 -1.4489293e-22 -357.20943 108.49579 4.334487e-17 0 -961556.58 0 -357.20943 -961448.08 4.334487e-17
0.992683 -4.8483871 0 -9.7373745 0 -0 -9.808892 0 0 -9.81 0 1.204 -357.80473 108.56279 4.3489299e-17 -0.017335166 0.041789148 -1.6012595e-22 -357.82206 108.60458 4.3489139e-17 0 -961556.58 0 -357.82206 -961447.98 4.3489139e-17
0.993589 -4.8572133 0 -9.7462575 0 -0 -9.8088911 0 0 -9.81 0 1.204 -358.42278 108.65443 4.3626291e-17 -0.017331826 0.041800657 -1.742897e-22 -358.44011 108.69623 4.3626117e-17 0 -961556.58 0 -358.44011 -961447.88 4.3626117e-17
0.994493 -4.8660337 0 -9.7551265 0 -0 -9.8088902 0 0 -9.81 0 1.204 -359.02366 108.74108 4.3763324e-17 -0.017327359 0.04181222 -1.8855355e-22 -359.04098 108.78289 4.3763135e-17 0 -961556.58 0 -359.04098 -961447.8 4.3763135e-17
0.995396 -4.8748501 0 -9.7639834 0 -0 -9.8088894 0 0 -9.81 0 1.204 -359.60851 108.81942 4.3898816e-17 -0.0173218 0.041823782 -2.026099e-22 -359.62583 108.86125 4.3898613e-17 0 -961556.58 0 -359.62583 -961447.72 4.3898613e-17
0.996298 -4.8836607 0 -9.7728265 0 -0 -9.8088886 0 0 -9.81 0 1.204 -360.18848 108.89489 4.4034212e-17 -0.017315163 0.041835259 -2.1651385e-22 -360.2058 108.93673 4.4033996e-17 0 -961556.58 0 -360.2058 -961447.64 4.4033996e-17
0.997198 -4.8924672 0 -9.7816576 0 -0 -9.8088873 0 0 -9.81 0 1.204 -360.87871 109.01895 4.4177888e-17 -0.017307482 0.04184664 -2.3084488e-22 -360.89602 109.0608 4.4177657e-17 0 -961556.58 0 -360.89602 -961447.52 4.4177657e-17
0.998097 -4.9012699 0 -9.7904767 0 -0 -9.8088855 0 0 -9.81 0 1.204 -361.53947 109.1989 4.4351348e-17 -0.017298735 0.041858638 -2.4953401e-22 -361.55677 109.24076 4.4351099e-17 0 -961556.58 0 -361.55677 -961447.34 4.4351099e-17
0.998995 -4.9100666 0 -9.7992821 0 -0 -9.8088845 0 0 -9.81 0 1.204 -362.13988 109.30159 4.4497453e-17 -0.017288914 0.041870724 -2.6453335e-22 -362.15717 109.34346 4.4497188e-17 0 -961556.58 0 -362.15717 -961447.24 4.4497188e-17
0.999891 -4.9188594 0 -9.8080756 0 -0 -9.8088824 0 0 -9.81 0 1.204 -362.82626 109.50587 4.4679463e-17 -0.017278048 0.041883361 -2.8409161e-22 -362.84354 109.54775 4.4679179e-17 0 -961556.58 0 -362.84354 -961447.03 4.4679179e-17
1.00079 -4.9276482 0 -9.8168573 0 -0 -9.8088812 0 0 -9.81 0 1.204 -363.42586 109.62259 4.4833453e-17 -0.017266106 0.04189642 -3.0016811e-22 -363.44313 109.66448 4.4833153e-17 0 -961556.58 0 -363.44313 -961446.92 4.4833153e-17
1.00168 -4.9364331 0 -9.8256272 0 -0 -9.8088802 0 0 -9.81 0 1.204 -364.01192 109.72079 4.498143e-17 -0.017253136 0.041909696 -3.1524495e-22 -364.02918 109.7627 4.4981115e-17 0 -961556.58 0 -364.02918 -961446.82 4.4981115e-17
1.00257 -4.945214 0 -9.8343853 0 -0 -9.8088792 0 0 -9.81 0 1.204 -364.60373 109.81874 4.5128722e-17 -0.017239125 0.041923202 -3.3000314e-22 -364.62097 109.86066 4.5128392e-17 0 -961556.58 0 -364.62097 -961446.72 4.5128392e-17
1.00347 -4.953993 0 -9.8431337 0 -0 -9.808878 0 0 -9.81 0 1.204 -365.19088 109.92978 4.5284364e-17 -0.017224238 0.041937375 -3.4633007e-22 -365.2081 109.97172 4.5284017e-17 0 -961556.58 0 -365.2081 -961446.61 4.5284017e-17
1.00436 -4.9627679 0 -9.8518704 0 -0 -9.8088771 0 0 -9.81 0 1.204 -365.77257 110.02732 4.5435543e-17 -0.017208836 0.041950495 -3.615648e-22 -365.78978 110.06927 4.5435181e-17 0 -961556.58 0 -365.78978 -961446.51 4.5435181e-17
1.00525 -4.971539 0 -9.8605954 0 -0 -9.808876 0 0 -9.81 0 1.204 -366.36093 110.13063 4.558745e-17 -0.017192896 0.041962834 -3.7657719e-22 -366.37812 110.17259 4.5587073e-17 0 -961556.58 0 -366.37812 -961446.41 4.5587073e-17
1.00613 -4.980306 0 -9.8693088 0 -0 -9.808875 0 0 -9.81 0 1.204 -366.94561 110.23285 4.5738768e-17 -0.017176375 0.041974613 -3.913236e-22 -366.96279 110.27482 4.5738377e-17 0 -961556.58 0 -366.96279 -961446.31 4.5738377e-17
1.00702 -4.9890711 0 -9.8780125 0 -0 -9.8088738 0 0 -9.81 0 1.204 -367.51961 110.34252 4.5895387e-17 -0.017158998 0.041983216 -4.0726241e-22 -367.53677 110.3845 4.589498e-17 0 -961556.58 0 -367.53677 -961446.2 4.589498e-17
1.00791 -4.9978321 0 -9.8867046 0 -0 -9.8088728 0 0 -9.81 0 1.204 -368.06103 110.43962 4.6048584e-17 -0.017140872 0.041992099 -4.2214201e-22 -368.07817 110.48161 4.6048162e-17 0 -961556.58 0 -368.07817 -961446.1 4.6048162e-17
1.00879 -5.0065912 0 -9.8953871 0 -0 -9.8088708 0 0 -9.81 0 1.204 -368.71841 110.64189 4.6236643e-17 -0.017122058 0.042001548 -4.4104984e-22 -368.73553 110.68389 4.6236202e-17 0 -961556.58 0 -368.73553 -961445.9 4.6236202e-17
1.00968 -5.0153463 0 -9.904058 0 -0 -9.8088704 0 0 -9.81 0 1.204 -369.33766 110.67623 4.6362069e-17 -0.017102585 0.042010915 -4.5207323e-22 -369.35476 110.71824 4.6361617e-17 0 -961556.58 0 -369.35476 -961445.86 4.6361617e-17
1.01056 -5.0240993 0 -9.9127193 0 -0 -9.8088695 0 0 -9.81 0 1.204 -369.98814 110.76313 4.6499802e-17 -0.01708256 0.042020195 -4.6351311e-22 -370.00522 110.80515 4.6499338e-17 0 -961556.58 0 -370.00522 -961445.77 4.6499338e-17
1.01144 -5.0328483 0 -9.9213692 0 -0 -9.8088693 0 0 -9.81 0 1.204 -370.52345 110.78257 4.6621817e-17 -0.017062025 0.042029702 -4.7313672e-22 -370.54051 110.8246 4.6621344e-17 0 -961556.58 0 -370.54051 -961445.76 4.6621344e-17
1.01232 -5.0415953 0 -9.9300095 0 -0 -9.8088686 0 0 -9.81 0 1.204 -371.07109 110.85801 4.6767385e-17 -0.017041453 0.042038507 -4.8545021e-22 -371.08813 110.90005 4.67669e-17 0 -961556.58 0 -371.08813 -961445.68 4.67669e-17
1.0132 -5.0503403 0 -9.9386402 0 -0 -9.8088679 0 0 -9.81 0 1.204 -371.6133 110.91991 4.6904219e-17 -0.017021306 0.042045744 -4.9622093e-22 -371.63032 110.96195 4.6903722e-17 0 -961556.58 0 -371.63032 -961445.62 4.6903722e-17
1.01408 -5.0590812 0 -9.9472596 0 -0 -9.8088671 0 0 -9.81 0 1.204 -372.23793 111.00739 4.7040007e-17 -0.017001348 0.042052427 -5.0567275e-22 -372.25493 111.04945 4.7039501e-17 0 -961556.58 0 -372.25493 -961445.53 4.7039501e-17
1.01496 -5.0678201 0 -9.9558694 0 -0 -9.8088665 0 0 -9.81 0 1.204 -372.87519 111.06516 4.7158425e-17 -0.016981472 0.042058599 -5.1229415e-22 -372.89217 111.10722 4.7157912e-17 0 -961556.58 0 -372.89217 -961445.47 4.7157912e-17
1.01584 -5.0765569 0 -9.9644698 0 -0 -9.8088645 0 0 -9.81 0 1.204 -373.45208 111.26176 4.7345192e-17 -0.016961597 0.042066294 -5.2873016e-22 -373.46904 111.30382 4.7344664e-17 0 -961556.58 0 -373.46904 -961445.28 4.7344664e-17
1.01671 -5.0852936 0 -9.9730626 0 -0 -9.8088619 0 0 -9.81 0 1.204 -374.03029 111.50786 4.7555946e-17 -0.016941498 0.042074503 -5.4834924e-22 -374.04723 111.54993 4.7555398e-17 0 -961556.58 0 -374.04723 -961445.03 4.7555398e-17
1.01759 -5.0940282 0 -9.981646 0 -0 -9.8088603 0 0 -9.81 0 1.204 -374.61577 111.66469 4.772954e-17 -0.016921077 0.042082788 -5.6288535e-22 -374.63269 111.70677 4.7728977e-17 0 -961556.58 0 -374.63269 -961444.87 4.7728977e-17
1.01846 -5.1027607 0 -9.99022 0 -0 -9.8088592 0 0 -9.81 0 1.204 -375.18798 111.77282 4.7885559e-17 -0.016900363 0.04209153 -5.7506219e-22 -375.20488 111.81492 4.7884984e-17 0 -961556.58 0 -375.20488 -961444.77 4.7884984e-17
1.01933 -5.111493 0 -9.9987864 0 -0 -9.8088583 0 0 -9.81 0 1.204 -375.76183 111.86879 4.8037365e-17 -0.016879349 0.042100624 -5.8654198e-22 -375.77871 111.91089 4.8036779e-17 0 -961556.58 0 -375.77871 -961444.67 4.8036779e-17
1.02021 -5.1202232 0 -10.007343 0 -0 -9.8088573 0 0 -9.81 0 1.204 -376.34405 111.95927 4.8185485e-17 -0.016858015 0.042109881 -5.9717674e-22 -376.36091 112.00138 4.8184888e-17 0 -961556.58 0 -376.36091 -961444.58 4.8184888e-17
1.02108 -5.1289532 0 -10.015893 0 -0 -9.8088561 0 0 -9.81 0 1.204 -376.91782 112.07728 4.8345954e-17 -0.016836395 0.042119617 -6.0915259e-22 -376.93465 112.1194 4.8345345e-17 0 -961556.58 0 -376.93465 -961444.46 4.8345345e-17
1.02195 -5.137683 0 -10.024435 0 -0 -9.8088545 0 0 -9.81 0 1.204 -377.42712 112.24171 4.8534419e-17 -0.016814455 0.042130038 -6.2502831e-22 -377.44393 112.28384 4.8533794e-17 0 -961556.58 0 -377.44393 -961444.3 4.8533794e-17
1.02282 -5.1464106 0 -10.032968 0 -0 -9.8088532 0 0 -9.81 0 1.204 -378.01226 112.36635 4.8696261e-17 -0.016792122 0.042140309 -6.3676681e-22 -378.02905 112.40849 4.8695624e-17 0 -961556.58 0 -378.02905 -961444.17 4.8695624e-17
1.02369 -5.1551381 0 -10.041493 0 -0 -9.8088523 0 0 -9.81 0 1.204 -378.60069 112.45425 4.8840449e-17 -0.016769512 0.042150729 -6.4493078e-22 -378.61746 112.4964 4.8839804e-17 0 -961556.58 0 -378.61746 -961444.08 4.8839804e-17
1.02456 -5.1638653 0 -10.050011 0 -0 -9.8088504 0 0 -9.81 0 1.204 -379.28792 112.63848 4.9015898e-17 -0.016746651 0.042161487 -6.5481909e-22 -379.30467 112.68064 4.9015243e-17 0 -961556.58 0 -379.30467 -961443.9 4.9015243e-17
1.02542 -5.1725923 0 -10.058521 0 -0 -9.8088492 0 0 -9.81 0 1.204 -379.8958 112.75401 4.9170302e-17 -0.016723479 0.042172421 -6.6220442e-22 -379.91253 112.79618 4.9169639e-17 0 -961556.58 0 -379.91253 -961443.78 4.9169639e-17
1.02629 -5.181321 0 -10.067026 0 -0 -9.8088478 0 0 -9.81 0 1.204 -380.48888 112.89311 4.9337125e-17 -0.01670001 0.042183728 -6.7119626e-22 -380.50558 112.9353 4.9336454e-17 0 -961556.58 0 -380.50558 -961443.64 4.9336454e-17
1.02716 -5.1900494 0 -10.075523 0 -0 -9.8088468 0 0 -9.81 0 1.204 -381.0889 112.99599 4.948868e-17 -0.016676219 0.042195184 -6.7821376e-22 -381.10557 113.03818 4.9488002e-17 0 -961556.58 0 -381.10557 -961443.54 4.9488002e-17
1.02802 -5.1987775 0 -10.084013 0 -0 -9.8088456 0 0 -9.81 0 1.204 -381.70504 113.11091 4.9643086e-17 -0.016652157 0.042206985 -6.8527665e-22 -381.72169 113.15312 4.96424e-17 0 -961556.58 0 -381.72169 -961443.43 4.96424e-17
1.02889 -5.2075073 0 -10.092498 0 -0 -9.8088443 0 0 -9.81 0 1.204 -382.33741 113.23526 4.9799652e-17 -0.016627848 0.042219217 -6.924883e-22 -382.35404 113.27748 4.979896e-17 0 -961556.58 0 -382.35404 -961443.3 4.979896e-17
1.02975 -5.2162387 0 -10.100977 0 -0 -9.808844 0 0 -9.81 0 1.204 -382.88433 113.26924 4.9925236e-17 -0.016603328 0.04223148 -6.9585187e-22 -382.90093 113.31147 4.992454e-17 0 -961556.58 0 -382.90093 -961443.27 4.992454e-17
1.03062 -5.2249699 0 -10.109448 0 -0 -9.8088435 0 0 -9.81 0 1.204 -383.46093 113.31639 5.005277e-17 -0.016578636 0.042243748 -6.9913924e-22 -383.47751 113.35864 5.0052071e-17 0 -961556.58 0 -383.47751 -961443.22 5.0052071e-17
1.03148 -5.2337026 0 -10.117914 0 -0 -9.8088426 0 0 -9.81 0 1.204 -384.08657 113.40237 5.0190595e-17 -0.016553824 0.042256279 -7.0330236e-22 -384.10313 113.44463 5.0189892e-17 0 -961556.58 0 -384.10313 -961443.14 5.0189892e-17
1.03234 -5.2424369 0 -10.126375 0 -0 -9.8088415 0 0 -9.81 0 1.204 -384.69919 113.50714 5.0340426e-17 -0.016528817 0.042268933 -7.0931928e-22 -384.71572 113.54941 5.0339716e-17 0 -961556.58 0 -384.71572 -961443.03 5.0339716e-17
1.0332 -5.2511748 0 -10.134831 0 -0 -9.8088402 0 0 -9.81 0 1.204 -385.29824 113.63911 5.0509396e-17 -0.01650354 0.042281814 -7.1835415e-22 -385.31475 113.68139 5.0508677e-17 0 -961556.58 0 -385.31475 -961442.9 5.0508677e-17
1.03407 -5.2599142 0 -10.143283 0 -0 -9.8088389 0 0 -9.81 0 1.204 -385.92497 113.76177 5.0673074e-17 -0.016477999 0.042295031 -7.2681556e-22 -385.94145 113.80407 5.0672347e-17 0 -961556.58 0 -385.94145 -961442.78 5.0672347e-17
1.03493 -5.2686552 0 -10.151728 0 -0 -9.8088383 0 0 -9.81 0 1.204 -386.46597 113.82275 5.0820611e-17 -0.016452262 0.042308379 -7.3343036e-22 -386.48242 113.86506 5.0819877e-17 0 -961556.58 0 -386.48242 -961442.71 5.0819877e-17
1.03579 -5.2773978 0 -10.160169 0 -0 -9.8088374 0 0 -9.81 0 1.204 -387.0205 113.91375 5.0974435e-17 -0.016426349 0.042322083 -7.4056613e-22 -387.03693 113.95607 5.0973695e-17 0 -961556.58 0 -387.03693 -961442.62 5.0973695e-17
1.03665 -5.2861439 0 -10.168605 0 -0 -9.8088363 0 0 -9.81 0 1.204 -387.54394 114.02406 5.1135406e-17 -0.016400246 0.042336098 -7.4837272e-22 -387.56034 114.06639 5.1134658e-17 0 -961556.58 0 -387.56034 -961442.51 5.1134658e-17
1.03751 -5.2948915 0 -10.177036 0 -0 -9.8088351 0 0 -9.81 0 1.204 -388.04403 114.14148 5.1298168e-17 -0.016373969 0.042350664 -7.5657238e-22 -388.0604 114.18383 5.1297412e-17 0 -961556.58 0 -388.0604 -961442.4 5.1297412e-17
1.03837 -5.3036406 0 -10.185462 0 -0 -9.8088339 0 0 -9.81 0 1.204 -388.62268 114.25811 5.1468625e-17 -0.016347587 0.042365618 -7.6736341e-22 -388.63903 114.30048 5.1467858e-17 0 -961556.58 0 -388.63903 -961442.28 5.1467858e-17
1.03922 -5.3123932 0 -10.193884 0 -0 -9.8088328 0 0 -9.81 0 1.204 -389.20976 114.36772 5.1638682e-17 -0.016320986 0.042380416 -7.777505e-22 -389.22608 114.4101 5.1637904e-17 0 -961556.58 0 -389.22608 -961442.17 5.1637904e-17
